STUDYID,DOMAIN,USUBJID,EPOCH,LBSEQ,LBTESTCD,LBTEST,LBCAT,LBORRES,LBORRESU,LBORNRLO,LBORNRHI,LBSTRESC,LBSTRESN,LBSTRESU,LBSTNRLO,LBSTNRHI,LBNRIND,LBSTAT,LBREASND,LBSPEC,LBMETHOD,LBBLFL,VISIT,VISITNUM,LBDTC,LBDY
NIDA-CTN-0002,LB,02_000549,SCREENING,1,AMPHET,AMPHETAMINES,DRUG SCREEN,NEGATIVE,,,,NEGATIVE," ",," "," ",,,,URINE,ACCUTEST,Y,"BASELINE, ANY DAY PRIOR TO FIRST DOSE",0,2001,1
NIDA-CTN-0002,LB,02_000549,SCREENING,11,AMPHET,AMPHETAMINES,DRUG SCREEN,NEGATIVE,,,,NEGATIVE," ",," "," ",,,,URINE,CENTRAL LAB,Y,"BASELINE, ANY DAY PRIOR TO FIRST DOSE",0,2001,1
NIDA-CTN-0002,LB,02_000549,ACTIVE,18,AMPHET,AMPHETAMINES,DRUG SCREEN,NEGATIVE,,,,NEGATIVE," ",," "," ",,,,URINE,CENTRAL LAB,,STUDY DAY 4,4,2001,4
NIDA-CTN-0002,LB,02_000549,ACTIVE,25,AMPHET,AMPHETAMINES,DRUG SCREEN,NEGATIVE,,,,NEGATIVE," ",," "," ",,,,URINE,CENTRAL LAB,,STUDY DAY 8,8,2001,8
NIDA-CTN-0002,LB,02_000549,ACTIVE,33,AMPHET,AMPHETAMINES,DRUG SCREEN,NEGATIVE,,,,NEGATIVE," ",," "," ",,,,URINE,CENTRAL LAB,,STUDY DAY 10,10,2001,10
NIDA-CTN-0002,LB,02_000549,FOLLOW-UP 1,41,AMPHET,AMPHETAMINES,DRUG SCREEN,NEGATIVE,,,,NEGATIVE," ",," "," ",,,,URINE,CENTRAL LAB,,FOLLOW-UP 1,15,2001,56
NIDA-CTN-0002,LB,02_000549,SCREENING,2,BARBIT,BARBITURATES,DRUG SCREEN,NEGATIVE,,,,NEGATIVE," ",," "," ",,,,URINE,ACCUTEST,Y,"BASELINE, ANY DAY PRIOR TO FIRST DOSE",0,2001,1
NIDA-CTN-0002,LB,02_000549,SCREENING,3,BENZOD,BENZODIAZEPINES,DRUG SCREEN,NEGATIVE,,,,NEGATIVE," ",," "," ",,,,URINE,ACCUTEST,Y,"BASELINE, ANY DAY PRIOR TO FIRST DOSE",0,2001,1
NIDA-CTN-0002,LB,02_000549,SCREENING,12,BENZOD,BENZODIAZEPINES,DRUG SCREEN,NEGATIVE,,,,NEGATIVE," ",," "," ",,,,URINE,CENTRAL LAB,Y,"BASELINE, ANY DAY PRIOR TO FIRST DOSE",0,2001,1
NIDA-CTN-0002,LB,02_000549,ACTIVE,19,BENZOD,BENZODIAZEPINES,DRUG SCREEN,NEGATIVE,,,,NEGATIVE," ",," "," ",,,,URINE,CENTRAL LAB,,STUDY DAY 4,4,2001,4
NIDA-CTN-0002,LB,02_000549,ACTIVE,26,BENZOD,BENZODIAZEPINES,DRUG SCREEN,NEGATIVE,,,,NEGATIVE," ",," "," ",,,,URINE,CENTRAL LAB,,STUDY DAY 8,8,2001,8
NIDA-CTN-0002,LB,02_000549,ACTIVE,34,BENZOD,BENZODIAZEPINES,DRUG SCREEN,NEGATIVE,,,,NEGATIVE," ",," "," ",,,,URINE,CENTRAL LAB,,STUDY DAY 10,10,2001,10
NIDA-CTN-0002,LB,02_000549,FOLLOW-UP 1,42,BENZOD,BENZODIAZEPINES,DRUG SCREEN,NEGATIVE,,,,NEGATIVE," ",," "," ",,,,URINE,CENTRAL LAB,,FOLLOW-UP 1,15,2001,56
NIDA-CTN-0002,LB,02_000549,SCREENING,4,COCAINE,COCAINE,DRUG SCREEN,NEGATIVE,,,,NEGATIVE," ",," "," ",,,,URINE,ACCUTEST,Y,"BASELINE, ANY DAY PRIOR TO FIRST DOSE",0,2001,1
NIDA-CTN-0002,LB,02_000549,SCREENING,13,COCAINE,COCAINE,DRUG SCREEN,NEGATIVE,,,,NEGATIVE," ",," "," ",,,,URINE,CENTRAL LAB,Y,"BASELINE, ANY DAY PRIOR TO FIRST DOSE",0,2001,1
NIDA-CTN-0002,LB,02_000549,ACTIVE,20,COCAINE,COCAINE,DRUG SCREEN,NEGATIVE,,,,NEGATIVE," ",," "," ",,,,URINE,CENTRAL LAB,,STUDY DAY 4,4,2001,4
NIDA-CTN-0002,LB,02_000549,ACTIVE,27,COCAINE,COCAINE,DRUG SCREEN,NEGATIVE,,,,NEGATIVE," ",," "," ",,,,URINE,CENTRAL LAB,,STUDY DAY 8,8,2001,8
NIDA-CTN-0002,LB,02_000549,ACTIVE,35,COCAINE,COCAINE,DRUG SCREEN,NEGATIVE,,,,NEGATIVE," ",," "," ",,,,URINE,CENTRAL LAB,,STUDY DAY 10,10,2001,10
NIDA-CTN-0002,LB,02_000549,FOLLOW-UP 1,43,COCAINE,COCAINE,DRUG SCREEN,NEGATIVE,,,,NEGATIVE," ",," "," ",,,,URINE,CENTRAL LAB,,FOLLOW-UP 1,15,2001,56
NIDA-CTN-0002,LB,02_000549,SCREENING,14,CREAT,CREATININE,CHEMISTRY,52.9,mg/dL,,,52.9,52.9,mg/dL," "," ",,,,URINE,CENTRAL LAB,Y,"BASELINE, ANY DAY PRIOR TO FIRST DOSE",0,2001,1
NIDA-CTN-0002,LB,02_000549,ACTIVE,21,CREAT,CREATININE,CHEMISTRY,85.3,mg/dL,,,85.3,85.3,mg/dL," "," ",,,,URINE,CENTRAL LAB,,STUDY DAY 4,4,2001,4
NIDA-CTN-0002,LB,02_000549,ACTIVE,28,CREAT,CREATININE,CHEMISTRY,167.9,mg/dL,,,167.9,167.9,mg/dL," "," ",,,,URINE,CENTRAL LAB,,STUDY DAY 8,8,2001,8
NIDA-CTN-0002,LB,02_000549,ACTIVE,36,CREAT,CREATININE,CHEMISTRY,167.3,mg/dL,,,167.3,167.3,mg/dL," "," ",,,,URINE,CENTRAL LAB,,STUDY DAY 10,10,2001,10
NIDA-CTN-0002,LB,02_000549,FOLLOW-UP 1,44,CREAT,CREATININE,CHEMISTRY,151.6,mg/dL,,,151.6,151.6,mg/dL," "," ",,,,URINE,CENTRAL LAB,,FOLLOW-UP 1,15,2001,56
NIDA-CTN-0002,LB,02_000549,SCREENING,5,METH,METHAMPHETAMINE,DRUG SCREEN,NEGATIVE,,,,NEGATIVE," ",," "," ",,,,URINE,ACCUTEST,Y,"BASELINE, ANY DAY PRIOR TO FIRST DOSE",0,2001,1
NIDA-CTN-0002,LB,02_000549,SCREENING,6,METHADON,METHADONE,DRUG SCREEN,NEGATIVE,,,,NEGATIVE," ",," "," ",,,,URINE,ACCUTEST,Y,"BASELINE, ANY DAY PRIOR TO FIRST DOSE",0,2001,1
NIDA-CTN-0002,LB,02_000549,SCREENING,15,METHADON,METHADONE,DRUG SCREEN,NEGATIVE,,,,NEGATIVE," ",," "," ",,,,URINE,CENTRAL LAB,Y,"BASELINE, ANY DAY PRIOR TO FIRST DOSE",0,2001,1
NIDA-CTN-0002,LB,02_000549,ACTIVE,22,METHADON,METHADONE,DRUG SCREEN,NEGATIVE,,,,NEGATIVE," ",," "," ",,,,URINE,CENTRAL LAB,,STUDY DAY 4,4,2001,4
NIDA-CTN-0002,LB,02_000549,ACTIVE,29,METHADON,METHADONE,DRUG SCREEN,NEGATIVE,,,,NEGATIVE," ",," "," ",,,,URINE,CENTRAL LAB,,STUDY DAY 8,8,2001,8
NIDA-CTN-0002,LB,02_000549,ACTIVE,37,METHADON,METHADONE,DRUG SCREEN,NEGATIVE,,,,NEGATIVE," ",," "," ",,,,URINE,CENTRAL LAB,,STUDY DAY 10,10,2001,10
NIDA-CTN-0002,LB,02_000549,FOLLOW-UP 1,45,METHADON,METHADONE,DRUG SCREEN,NEGATIVE,,,,NEGATIVE," ",," "," ",,,,URINE,CENTRAL LAB,,FOLLOW-UP 1,15,2001,56
NIDA-CTN-0002,LB,02_000549,SCREENING,7,MORPHINE,MORPHINE,DRUG SCREEN,NEGATIVE,,,,NEGATIVE," ",," "," ",,,,URINE,ACCUTEST,Y,"BASELINE, ANY DAY PRIOR TO FIRST DOSE",0,2001,1
NIDA-CTN-0002,LB,02_000549,ACTIVE,32,NONE,NONE,DRUG SCREEN,,,,,," ",," "," ",,NOT DONE,URINE NOT COLLECTED (SPECIFY IN COMMENTS),URINE,ACCUTEST,,STUDY DAY 10,10,2001,10
NIDA-CTN-0002,LB,02_000549,ACTIVE,40,NONE,NONE,DRUG SCREEN,,,,,," ",," "," ",,NOT DONE,URINE NOT COLLECTED (SPECIFY IN COMMENTS),URINE,CENTRAL LAB,,STUDY DAY 14,14,," "
NIDA-CTN-0002,LB,02_000549,FOLLOW-UP 2,48,NONE,NONE,DRUG SCREEN,,,,,," ",," "," ",,NOT DONE,PATIENT DID NOT ATTEND,URINE,CENTRAL LAB,,FOLLOW-UP 2,16,," "
NIDA-CTN-0002,LB,02_000549,FOLLOW-UP 3,49,NONE,NONE,DRUG SCREEN,,,,,," ",," "," ",,NOT DONE,PATIENT DID NOT ATTEND,URINE,CENTRAL LAB,,FOLLOW-UP 3,17,," "
NIDA-CTN-0002,LB,02_000549,SCREENING,16,OPIATE,OPIATE,DRUG SCREEN,POSITIVE,,,,POSITIVE," ",," "," ",,,,URINE,CENTRAL LAB,Y,"BASELINE, ANY DAY PRIOR TO FIRST DOSE",0,2001,1
NIDA-CTN-0002,LB,02_000549,ACTIVE,23,OPIATE,OPIATE,DRUG SCREEN,POSITIVE,,,,POSITIVE," ",," "," ",,,,URINE,CENTRAL LAB,,STUDY DAY 4,4,2001,4
NIDA-CTN-0002,LB,02_000549,ACTIVE,30,OPIATE,OPIATE,DRUG SCREEN,POSITIVE,,,,POSITIVE," ",," "," ",,,,URINE,CENTRAL LAB,,STUDY DAY 8,8,2001,8
NIDA-CTN-0002,LB,02_000549,ACTIVE,38,OPIATE,OPIATE,DRUG SCREEN,POSITIVE,,,,POSITIVE," ",," "," ",,,,URINE,CENTRAL LAB,,STUDY DAY 10,10,2001,10
NIDA-CTN-0002,LB,02_000549,FOLLOW-UP 1,46,OPIATE,OPIATE,DRUG SCREEN,POSITIVE,,,,POSITIVE," ",," "," ",,,,URINE,CENTRAL LAB,,FOLLOW-UP 1,15,2001,56
NIDA-CTN-0002,LB,02_000549,SCREENING,8,PCP,PCP,DRUG SCREEN,POSITIVE,,,,POSITIVE," ",," "," ",,,,URINE,ACCUTEST,Y,"BASELINE, ANY DAY PRIOR TO FIRST DOSE",0,2001,1
NIDA-CTN-0002,LB,02_000549,SCREENING,9,TCA,TCA,DRUG SCREEN,NEGATIVE,,,,NEGATIVE," ",," "," ",,,,URINE,ACCUTEST,Y,"BASELINE, ANY DAY PRIOR TO FIRST DOSE",0,2001,1
NIDA-CTN-0002,LB,02_000549,SCREENING,10,THC,THC,DRUG SCREEN,NEGATIVE,,,,NEGATIVE," ",," "," ",,,,URINE,ACCUTEST,Y,"BASELINE, ANY DAY PRIOR TO FIRST DOSE",0,2001,1
NIDA-CTN-0002,LB,02_000549,SCREENING,17,THC,THC,DRUG SCREEN,NEGATIVE,,,,NEGATIVE," ",," "," ",,,,URINE,CENTRAL LAB,Y,"BASELINE, ANY DAY PRIOR TO FIRST DOSE",0,2001,1
NIDA-CTN-0002,LB,02_000549,ACTIVE,24,THC,THC,DRUG SCREEN,NEGATIVE,,,,NEGATIVE," ",," "," ",,,,URINE,CENTRAL LAB,,STUDY DAY 4,4,2001,4
NIDA-CTN-0002,LB,02_000549,ACTIVE,31,THC,THC,DRUG SCREEN,NEGATIVE,,,,NEGATIVE," ",," "," ",,,,URINE,CENTRAL LAB,,STUDY DAY 8,8,2001,8
NIDA-CTN-0002,LB,02_000549,ACTIVE,39,THC,THC,DRUG SCREEN,NEGATIVE,,,,NEGATIVE," ",," "," ",,,,URINE,CENTRAL LAB,,STUDY DAY 10,10,2001,10
NIDA-CTN-0002,LB,02_000549,FOLLOW-UP 1,47,THC,THC,DRUG SCREEN,NEGATIVE,,,,NEGATIVE," ",," "," ",,,,URINE,CENTRAL LAB,,FOLLOW-UP 1,15,2001,56
NIDA-CTN-0002,LB,02_000852,SCREENING,1,AMPHET,AMPHETAMINES,DRUG SCREEN,NEGATIVE,,,,NEGATIVE," ",," "," ",,,,URINE,ACCUTEST,Y,"BASELINE, ANY DAY PRIOR TO FIRST DOSE",0,2002,1
NIDA-CTN-0002,LB,02_000852,SCREENING,11,AMPHET,AMPHETAMINES,DRUG SCREEN,NEGATIVE,,,,NEGATIVE," ",," "," ",,,,URINE,CENTRAL LAB,Y,"BASELINE, ANY DAY PRIOR TO FIRST DOSE",0,2002,1
NIDA-CTN-0002,LB,02_000852,ACTIVE,18,AMPHET,AMPHETAMINES,DRUG SCREEN,NEGATIVE,,,,NEGATIVE," ",," "," ",,,,URINE,CENTRAL LAB,,STUDY DAY 3,3,2002,3
NIDA-CTN-0002,LB,02_000852,ACTIVE,25,AMPHET,AMPHETAMINES,DRUG SCREEN,NEGATIVE,,,,NEGATIVE," ",," "," ",,,,URINE,CENTRAL LAB,,STUDY DAY 7,7,2002,7
NIDA-CTN-0002,LB,02_000852,ACTIVE,32,AMPHET,AMPHETAMINES,DRUG SCREEN,NEGATIVE,,,,NEGATIVE," ",," "," ",,,,URINE,CENTRAL LAB,,STUDY DAY 10,10,2002,10
NIDA-CTN-0002,LB,02_000852,FOLLOW-UP 1,41,AMPHET,AMPHETAMINES,DRUG SCREEN,NEGATIVE,,,,NEGATIVE," ",," "," ",,,,URINE,CENTRAL LAB,,FOLLOW-UP 1,15,2002,31
NIDA-CTN-0002,LB,02_000852,FOLLOW-UP 2,48,AMPHET,AMPHETAMINES,DRUG SCREEN,NEGATIVE,,,,NEGATIVE," ",," "," ",,,,URINE,CENTRAL LAB,,FOLLOW-UP 2,16,2002,113
NIDA-CTN-0002,LB,02_000852,SCREENING,2,BARBIT,BARBITURATES,DRUG SCREEN,NEGATIVE,,,,NEGATIVE," ",," "," ",,,,URINE,ACCUTEST,Y,"BASELINE, ANY DAY PRIOR TO FIRST DOSE",0,2002,1
NIDA-CTN-0002,LB,02_000852,SCREENING,3,BENZOD,BENZODIAZEPINES,DRUG SCREEN,NEGATIVE,,,,NEGATIVE," ",," "," ",,,,URINE,ACCUTEST,Y,"BASELINE, ANY DAY PRIOR TO FIRST DOSE",0,2002,1
NIDA-CTN-0002,LB,02_000852,SCREENING,12,BENZOD,BENZODIAZEPINES,DRUG SCREEN,NEGATIVE,,,,NEGATIVE," ",," "," ",,,,URINE,CENTRAL LAB,Y,"BASELINE, ANY DAY PRIOR TO FIRST DOSE",0,2002,1
NIDA-CTN-0002,LB,02_000852,ACTIVE,19,BENZOD,BENZODIAZEPINES,DRUG SCREEN,NEGATIVE,,,,NEGATIVE," ",," "," ",,,,URINE,CENTRAL LAB,,STUDY DAY 3,3,2002,3
NIDA-CTN-0002,LB,02_000852,ACTIVE,26,BENZOD,BENZODIAZEPINES,DRUG SCREEN,NEGATIVE,,,,NEGATIVE," ",," "," ",,,,URINE,CENTRAL LAB,,STUDY DAY 7,7,2002,7
NIDA-CTN-0002,LB,02_000852,ACTIVE,33,BENZOD,BENZODIAZEPINES,DRUG SCREEN,NEGATIVE,,,,NEGATIVE," ",," "," ",,,,URINE,CENTRAL LAB,,STUDY DAY 10,10,2002,10
NIDA-CTN-0002,LB,02_000852,FOLLOW-UP 1,42,BENZOD,BENZODIAZEPINES,DRUG SCREEN,NEGATIVE,,,,NEGATIVE," ",," "," ",,,,URINE,CENTRAL LAB,,FOLLOW-UP 1,15,2002,31
NIDA-CTN-0002,LB,02_000852,FOLLOW-UP 2,49,BENZOD,BENZODIAZEPINES,DRUG SCREEN,NEGATIVE,,,,NEGATIVE," ",," "," ",,,,URINE,CENTRAL LAB,,FOLLOW-UP 2,16,2002,113
NIDA-CTN-0002,LB,02_000852,SCREENING,4,COCAINE,COCAINE,DRUG SCREEN,NEGATIVE,,,,NEGATIVE," ",," "," ",,,,URINE,ACCUTEST,Y,"BASELINE, ANY DAY PRIOR TO FIRST DOSE",0,2002,1
NIDA-CTN-0002,LB,02_000852,SCREENING,13,COCAINE,COCAINE,DRUG SCREEN,NEGATIVE,,,,NEGATIVE," ",," "," ",,,,URINE,CENTRAL LAB,Y,"BASELINE, ANY DAY PRIOR TO FIRST DOSE",0,2002,1
NIDA-CTN-0002,LB,02_000852,ACTIVE,20,COCAINE,COCAINE,DRUG SCREEN,NEGATIVE,,,,NEGATIVE," ",," "," ",,,,URINE,CENTRAL LAB,,STUDY DAY 3,3,2002,3
NIDA-CTN-0002,LB,02_000852,ACTIVE,27,COCAINE,COCAINE,DRUG SCREEN,NEGATIVE,,,,NEGATIVE," ",," "," ",,,,URINE,CENTRAL LAB,,STUDY DAY 7,7,2002,7
NIDA-CTN-0002,LB,02_000852,ACTIVE,34,COCAINE,COCAINE,DRUG SCREEN,NEGATIVE,,,,NEGATIVE," ",," "," ",,,,URINE,CENTRAL LAB,,STUDY DAY 10,10,2002,10
NIDA-CTN-0002,LB,02_000852,FOLLOW-UP 1,43,COCAINE,COCAINE,DRUG SCREEN,NEGATIVE,,,,NEGATIVE," ",," "," ",,,,URINE,CENTRAL LAB,,FOLLOW-UP 1,15,2002,31
NIDA-CTN-0002,LB,02_000852,FOLLOW-UP 2,50,COCAINE,COCAINE,DRUG SCREEN,NEGATIVE,,,,NEGATIVE," ",," "," ",,,,URINE,CENTRAL LAB,,FOLLOW-UP 2,16,2002,113
NIDA-CTN-0002,LB,02_000852,SCREENING,14,CREAT,CREATININE,CHEMISTRY,82.4,mg/dL,,,82.4,82.4,mg/dL," "," ",,,,URINE,CENTRAL LAB,Y,"BASELINE, ANY DAY PRIOR TO FIRST DOSE",0,2002,1
NIDA-CTN-0002,LB,02_000852,ACTIVE,21,CREAT,CREATININE,CHEMISTRY,131.6,mg/dL,,,131.6,131.6,mg/dL," "," ",,,,URINE,CENTRAL LAB,,STUDY DAY 3,3,2002,3
NIDA-CTN-0002,LB,02_000852,ACTIVE,28,CREAT,CREATININE,CHEMISTRY,143.3,mg/dL,,,143.3,143.3,mg/dL," "," ",,,,URINE,CENTRAL LAB,,STUDY DAY 7,7,2002,7
NIDA-CTN-0002,LB,02_000852,ACTIVE,35,CREAT,CREATININE,CHEMISTRY,89.5,mg/dL,,,89.5,89.5,mg/dL," "," ",,,,URINE,CENTRAL LAB,,STUDY DAY 10,10,2002,10
NIDA-CTN-0002,LB,02_000852,FOLLOW-UP 1,44,CREAT,CREATININE,CHEMISTRY,98.8,mg/dL,,,98.8,98.8,mg/dL," "," ",,,,URINE,CENTRAL LAB,,FOLLOW-UP 1,15,2002,31
NIDA-CTN-0002,LB,02_000852,FOLLOW-UP 2,51,CREAT,CREATININE,CHEMISTRY,57.6,mg/dL,,,57.6,57.6,mg/dL," "," ",,,,URINE,CENTRAL LAB,,FOLLOW-UP 2,16,2002,113
NIDA-CTN-0002,LB,02_000852,SCREENING,5,METH,METHAMPHETAMINE,DRUG SCREEN,NEGATIVE,,,,NEGATIVE," ",," "," ",,,,URINE,ACCUTEST,Y,"BASELINE, ANY DAY PRIOR TO FIRST DOSE",0,2002,1
NIDA-CTN-0002,LB,02_000852,SCREENING,6,METHADON,METHADONE,DRUG SCREEN,NEGATIVE,,,,NEGATIVE," ",," "," ",,,,URINE,ACCUTEST,Y,"BASELINE, ANY DAY PRIOR TO FIRST DOSE",0,2002,1
NIDA-CTN-0002,LB,02_000852,SCREENING,15,METHADON,METHADONE,DRUG SCREEN,NEGATIVE,,,,NEGATIVE," ",," "," ",,,,URINE,CENTRAL LAB,Y,"BASELINE, ANY DAY PRIOR TO FIRST DOSE",0,2002,1
NIDA-CTN-0002,LB,02_000852,ACTIVE,22,METHADON,METHADONE,DRUG SCREEN,NEGATIVE,,,,NEGATIVE," ",," "," ",,,,URINE,CENTRAL LAB,,STUDY DAY 3,3,2002,3
NIDA-CTN-0002,LB,02_000852,ACTIVE,29,METHADON,METHADONE,DRUG SCREEN,NEGATIVE,,,,NEGATIVE," ",," "," ",,,,URINE,CENTRAL LAB,,STUDY DAY 7,7,2002,7
NIDA-CTN-0002,LB,02_000852,ACTIVE,36,METHADON,METHADONE,DRUG SCREEN,NEGATIVE,,,,NEGATIVE," ",," "," ",,,,URINE,CENTRAL LAB,,STUDY DAY 10,10,2002,10
NIDA-CTN-0002,LB,02_000852,FOLLOW-UP 1,45,METHADON,METHADONE,DRUG SCREEN,NEGATIVE,,,,NEGATIVE," ",," "," ",,,,URINE,CENTRAL LAB,,FOLLOW-UP 1,15,2002,31
NIDA-CTN-0002,LB,02_000852,FOLLOW-UP 2,52,METHADON,METHADONE,DRUG SCREEN,NEGATIVE,,,,NEGATIVE," ",," "," ",,,,URINE,CENTRAL LAB,,FOLLOW-UP 2,16,2002,113
NIDA-CTN-0002,LB,02_000852,SCREENING,7,MORPHINE,MORPHINE,DRUG SCREEN,POSITIVE,,,,POSITIVE," ",," "," ",,,,URINE,ACCUTEST,Y,"BASELINE, ANY DAY PRIOR TO FIRST DOSE",0,2002,1
NIDA-CTN-0002,LB,02_000852,ACTIVE,39,NONE,NONE,DRUG SCREEN,,,,,," ",," "," ",,NOT DONE,URINE NOT COLLECTED (SPECIFY IN COMMENTS),URINE,ACCUTEST,,STUDY DAY 13,13,2002,13
NIDA-CTN-0002,LB,02_000852,ACTIVE,40,NONE,NONE,DRUG SCREEN,,,,,," ",," "," ",,NOT DONE,URINE NOT COLLECTED (SPECIFY IN COMMENTS),URINE,CENTRAL LAB,,STUDY DAY 13,13,2002,13
NIDA-CTN-0002,LB,02_000852,FOLLOW-UP 3,55,NONE,NONE,DRUG SCREEN,,,,,," ",," "," ",,,,URINE,CENTRAL LAB,,FOLLOW-UP 3,17,2002,192
NIDA-CTN-0002,LB,02_000852,SCREENING,16,OPIATE,OPIATE,DRUG SCREEN,POSITIVE,,,,POSITIVE," ",," "," ",,,,URINE,CENTRAL LAB,Y,"BASELINE, ANY DAY PRIOR TO FIRST DOSE",0,2002,1
NIDA-CTN-0002,LB,02_000852,ACTIVE,23,OPIATE,OPIATE,DRUG SCREEN,POSITIVE,,,,POSITIVE," ",," "," ",,,,URINE,CENTRAL LAB,,STUDY DAY 3,3,2002,3
NIDA-CTN-0002,LB,02_000852,ACTIVE,30,OPIATE,OPIATE,DRUG SCREEN,NEGATIVE,,,,NEGATIVE," ",," "," ",,,,URINE,CENTRAL LAB,,STUDY DAY 7,7,2002,7
NIDA-CTN-0002,LB,02_000852,ACTIVE,37,OPIATE,OPIATE,DRUG SCREEN,NEGATIVE,,,,NEGATIVE," ",," "," ",,,,URINE,CENTRAL LAB,,STUDY DAY 10,10,2002,10
NIDA-CTN-0002,LB,02_000852,FOLLOW-UP 1,46,OPIATE,OPIATE,DRUG SCREEN,NEGATIVE,,,,NEGATIVE," ",," "," ",,,,URINE,CENTRAL LAB,,FOLLOW-UP 1,15,2002,31
NIDA-CTN-0002,LB,02_000852,FOLLOW-UP 2,53,OPIATE,OPIATE,DRUG SCREEN,NEGATIVE,,,,NEGATIVE," ",," "," ",,,,URINE,CENTRAL LAB,,FOLLOW-UP 2,16,2002,113
NIDA-CTN-0002,LB,02_000852,SCREENING,8,PCP,PCP,DRUG SCREEN,NEGATIVE,,,,NEGATIVE," ",," "," ",,,,URINE,ACCUTEST,Y,"BASELINE, ANY DAY PRIOR TO FIRST DOSE",0,2002,1
NIDA-CTN-0002,LB,02_000852,SCREENING,9,TCA,TCA,DRUG SCREEN,NEGATIVE,,,,NEGATIVE," ",," "," ",,,,URINE,ACCUTEST,Y,"BASELINE, ANY DAY PRIOR TO FIRST DOSE",0,2002,1
NIDA-CTN-0002,LB,02_000852,SCREENING,10,THC,THC,DRUG SCREEN,NEGATIVE,,,,NEGATIVE," ",," "," ",,,,URINE,ACCUTEST,Y,"BASELINE, ANY DAY PRIOR TO FIRST DOSE",0,2002,1
NIDA-CTN-0002,LB,02_000852,SCREENING,17,THC,THC,DRUG SCREEN,NEGATIVE,,,,NEGATIVE," ",," "," ",,,,URINE,CENTRAL LAB,Y,"BASELINE, ANY DAY PRIOR TO FIRST DOSE",0,2002,1
NIDA-CTN-0002,LB,02_000852,ACTIVE,24,THC,THC,DRUG SCREEN,NEGATIVE,,,,NEGATIVE," ",," "," ",,,,URINE,CENTRAL LAB,,STUDY DAY 3,3,2002,3
NIDA-CTN-0002,LB,02_000852,ACTIVE,31,THC,THC,DRUG SCREEN,NEGATIVE,,,,NEGATIVE," ",," "," ",,,,URINE,CENTRAL LAB,,STUDY DAY 7,7,2002,7
NIDA-CTN-0002,LB,02_000852,ACTIVE,38,THC,THC,DRUG SCREEN,NEGATIVE,,,,NEGATIVE," ",," "," ",,,,URINE,CENTRAL LAB,,STUDY DAY 10,10,2002,10
NIDA-CTN-0002,LB,02_000852,FOLLOW-UP 1,47,THC,THC,DRUG SCREEN,NEGATIVE,,,,NEGATIVE," ",," "," ",,,,URINE,CENTRAL LAB,,FOLLOW-UP 1,15,2002,31
NIDA-CTN-0002,LB,02_000852,FOLLOW-UP 2,54,THC,THC,DRUG SCREEN,NEGATIVE,,,,NEGATIVE," ",," "," ",,,,URINE,CENTRAL LAB,,FOLLOW-UP 2,16,2002,113
NIDA-CTN-0002,LB,02_002365,SCREENING,1,AMPHET,AMPHETAMINES,DRUG SCREEN,NEGATIVE,,,,NEGATIVE," ",," "," ",,,,URINE,ACCUTEST,Y,"BASELINE, ANY DAY PRIOR TO FIRST DOSE",0,2001,1
NIDA-CTN-0002,LB,02_002365,SCREENING,11,AMPHET,AMPHETAMINES,DRUG SCREEN,NEGATIVE,,,,NEGATIVE," ",," "," ",,,,URINE,CENTRAL LAB,Y,"BASELINE, ANY DAY PRIOR TO FIRST DOSE",0,2001,1
NIDA-CTN-0002,LB,02_002365,ACTIVE,18,AMPHET,AMPHETAMINES,DRUG SCREEN,NEGATIVE,,,,NEGATIVE," ",," "," ",,,,URINE,CENTRAL LAB,,STUDY DAY 3,3,2001,3
NIDA-CTN-0002,LB,02_002365,ACTIVE,25,AMPHET,AMPHETAMINES,DRUG SCREEN,NEGATIVE,,,,NEGATIVE," ",," "," ",,,,URINE,CENTRAL LAB,,STUDY DAY 7,7,2001,7
NIDA-CTN-0002,LB,02_002365,ACTIVE,32,AMPHET,AMPHETAMINES,DRUG SCREEN,NEGATIVE,,,,NEGATIVE," ",," "," ",,,,URINE,CENTRAL LAB,,STUDY DAY 11,11,2001,11
NIDA-CTN-0002,LB,02_002365,ACTIVE,39,AMPHET,AMPHETAMINES,DRUG SCREEN,NEGATIVE,,,,NEGATIVE," ",," "," ",,,,URINE,ACCUTEST,,STUDY DAY 14,14,2001,14
NIDA-CTN-0002,LB,02_002365,ACTIVE,49,AMPHET,AMPHETAMINES,DRUG SCREEN,NEGATIVE,,,,NEGATIVE," ",," "," ",,,,URINE,CENTRAL LAB,,STUDY DAY 14,14,2001,14
NIDA-CTN-0002,LB,02_002365,SCREENING,2,BARBIT,BARBITURATES,DRUG SCREEN,NEGATIVE,,,,NEGATIVE," ",," "," ",,,,URINE,ACCUTEST,Y,"BASELINE, ANY DAY PRIOR TO FIRST DOSE",0,2001,1
NIDA-CTN-0002,LB,02_002365,ACTIVE,40,BARBIT,BARBITURATES,DRUG SCREEN,NEGATIVE,,,,NEGATIVE," ",," "," ",,,,URINE,ACCUTEST,,STUDY DAY 14,14,2001,14
NIDA-CTN-0002,LB,02_002365,SCREENING,3,BENZOD,BENZODIAZEPINES,DRUG SCREEN,NEGATIVE,,,,NEGATIVE," ",," "," ",,,,URINE,ACCUTEST,Y,"BASELINE, ANY DAY PRIOR TO FIRST DOSE",0,2001,1
NIDA-CTN-0002,LB,02_002365,SCREENING,12,BENZOD,BENZODIAZEPINES,DRUG SCREEN,NEGATIVE,,,,NEGATIVE," ",," "," ",,,,URINE,CENTRAL LAB,Y,"BASELINE, ANY DAY PRIOR TO FIRST DOSE",0,2001,1
NIDA-CTN-0002,LB,02_002365,ACTIVE,19,BENZOD,BENZODIAZEPINES,DRUG SCREEN,NEGATIVE,,,,NEGATIVE," ",," "," ",,,,URINE,CENTRAL LAB,,STUDY DAY 3,3,2001,3
NIDA-CTN-0002,LB,02_002365,ACTIVE,26,BENZOD,BENZODIAZEPINES,DRUG SCREEN,NEGATIVE,,,,NEGATIVE," ",," "," ",,,,URINE,CENTRAL LAB,,STUDY DAY 7,7,2001,7
NIDA-CTN-0002,LB,02_002365,ACTIVE,33,BENZOD,BENZODIAZEPINES,DRUG SCREEN,NEGATIVE,,,,NEGATIVE," ",," "," ",,,,URINE,CENTRAL LAB,,STUDY DAY 11,11,2001,11
NIDA-CTN-0002,LB,02_002365,ACTIVE,41,BENZOD,BENZODIAZEPINES,DRUG SCREEN,NEGATIVE,,,,NEGATIVE," ",," "," ",,,,URINE,ACCUTEST,,STUDY DAY 14,14,2001,14
NIDA-CTN-0002,LB,02_002365,ACTIVE,50,BENZOD,BENZODIAZEPINES,DRUG SCREEN,NEGATIVE,,,,NEGATIVE," ",," "," ",,,,URINE,CENTRAL LAB,,STUDY DAY 14,14,2001,14
NIDA-CTN-0002,LB,02_002365,SCREENING,4,COCAINE,COCAINE,DRUG SCREEN,POSITIVE,,,,POSITIVE," ",," "," ",,,,URINE,ACCUTEST,Y,"BASELINE, ANY DAY PRIOR TO FIRST DOSE",0,2001,1
NIDA-CTN-0002,LB,02_002365,SCREENING,13,COCAINE,COCAINE,DRUG SCREEN,POSITIVE,,,,POSITIVE," ",," "," ",,,,URINE,CENTRAL LAB,Y,"BASELINE, ANY DAY PRIOR TO FIRST DOSE",0,2001,1
NIDA-CTN-0002,LB,02_002365,ACTIVE,20,COCAINE,COCAINE,DRUG SCREEN,POSITIVE,,,,POSITIVE," ",," "," ",,,,URINE,CENTRAL LAB,,STUDY DAY 3,3,2001,3
NIDA-CTN-0002,LB,02_002365,ACTIVE,27,COCAINE,COCAINE,DRUG SCREEN,POSITIVE,,,,POSITIVE," ",," "," ",,,,URINE,CENTRAL LAB,,STUDY DAY 7,7,2001,7
NIDA-CTN-0002,LB,02_002365,ACTIVE,34,COCAINE,COCAINE,DRUG SCREEN,POSITIVE,,,,POSITIVE," ",," "," ",,,,URINE,CENTRAL LAB,,STUDY DAY 11,11,2001,11
NIDA-CTN-0002,LB,02_002365,ACTIVE,42,COCAINE,COCAINE,DRUG SCREEN,POSITIVE,,,,POSITIVE," ",," "," ",,,,URINE,ACCUTEST,,STUDY DAY 14,14,2001,14
NIDA-CTN-0002,LB,02_002365,ACTIVE,51,COCAINE,COCAINE,DRUG SCREEN,POSITIVE,,,,POSITIVE," ",," "," ",,,,URINE,CENTRAL LAB,,STUDY DAY 14,14,2001,14
NIDA-CTN-0002,LB,02_002365,SCREENING,14,CREAT,CREATININE,CHEMISTRY,92.5,mg/dL,,,92.5,92.5,mg/dL," "," ",,,,URINE,CENTRAL LAB,Y,"BASELINE, ANY DAY PRIOR TO FIRST DOSE",0,2001,1
NIDA-CTN-0002,LB,02_002365,ACTIVE,21,CREAT,CREATININE,CHEMISTRY,98.0,mg/dL,,,98.0,98,mg/dL," "," ",,,,URINE,CENTRAL LAB,,STUDY DAY 3,3,2001,3
NIDA-CTN-0002,LB,02_002365,ACTIVE,28,CREAT,CREATININE,CHEMISTRY,141.4,mg/dL,,,141.4,141.4,mg/dL," "," ",,,,URINE,CENTRAL LAB,,STUDY DAY 7,7,2001,7
NIDA-CTN-0002,LB,02_002365,ACTIVE,35,CREAT,CREATININE,CHEMISTRY,116.1,mg/dL,,,116.1,116.1,mg/dL," "," ",,,,URINE,CENTRAL LAB,,STUDY DAY 11,11,2001,11
NIDA-CTN-0002,LB,02_002365,ACTIVE,52,CREAT,CREATININE,CHEMISTRY,108.1,mg/dL,,,108.1,108.1,mg/dL," "," ",,,,URINE,CENTRAL LAB,,STUDY DAY 14,14,2001,14
NIDA-CTN-0002,LB,02_002365,SCREENING,5,METH,METHAMPHETAMINE,DRUG SCREEN,NEGATIVE,,,,NEGATIVE," ",," "," ",,,,URINE,ACCUTEST,Y,"BASELINE, ANY DAY PRIOR TO FIRST DOSE",0,2001,1
NIDA-CTN-0002,LB,02_002365,ACTIVE,43,METH,METHAMPHETAMINE,DRUG SCREEN,NEGATIVE,,,,NEGATIVE," ",," "," ",,,,URINE,ACCUTEST,,STUDY DAY 14,14,2001,14
NIDA-CTN-0002,LB,02_002365,SCREENING,6,METHADON,METHADONE,DRUG SCREEN,NEGATIVE,,,,NEGATIVE," ",," "," ",,,,URINE,ACCUTEST,Y,"BASELINE, ANY DAY PRIOR TO FIRST DOSE",0,2001,1
NIDA-CTN-0002,LB,02_002365,SCREENING,15,METHADON,METHADONE,DRUG SCREEN,NEGATIVE,,,,NEGATIVE," ",," "," ",,,,URINE,CENTRAL LAB,Y,"BASELINE, ANY DAY PRIOR TO FIRST DOSE",0,2001,1
NIDA-CTN-0002,LB,02_002365,ACTIVE,22,METHADON,METHADONE,DRUG SCREEN,NEGATIVE,,,,NEGATIVE," ",," "," ",,,,URINE,CENTRAL LAB,,STUDY DAY 3,3,2001,3
NIDA-CTN-0002,LB,02_002365,ACTIVE,29,METHADON,METHADONE,DRUG SCREEN,NEGATIVE,,,,NEGATIVE," ",," "," ",,,,URINE,CENTRAL LAB,,STUDY DAY 7,7,2001,7
NIDA-CTN-0002,LB,02_002365,ACTIVE,36,METHADON,METHADONE,DRUG SCREEN,NEGATIVE,,,,NEGATIVE," ",," "," ",,,,URINE,CENTRAL LAB,,STUDY DAY 11,11,2001,11
NIDA-CTN-0002,LB,02_002365,ACTIVE,44,METHADON,METHADONE,DRUG SCREEN,NEGATIVE,,,,NEGATIVE," ",," "," ",,,,URINE,ACCUTEST,,STUDY DAY 14,14,2001,14
NIDA-CTN-0002,LB,02_002365,ACTIVE,53,METHADON,METHADONE,DRUG SCREEN,NEGATIVE,,,,NEGATIVE," ",," "," ",,,,URINE,CENTRAL LAB,,STUDY DAY 14,14,2001,14
NIDA-CTN-0002,LB,02_002365,SCREENING,7,MORPHINE,MORPHINE,DRUG SCREEN,POSITIVE,,,,POSITIVE," ",," "," ",,,,URINE,ACCUTEST,Y,"BASELINE, ANY DAY PRIOR TO FIRST DOSE",0,2001,1
NIDA-CTN-0002,LB,02_002365,ACTIVE,45,MORPHINE,MORPHINE,DRUG SCREEN,NEGATIVE,,,,NEGATIVE," ",," "," ",,,,URINE,ACCUTEST,,STUDY DAY 14,14,2001,14
NIDA-CTN-0002,LB,02_002365,SCREENING,16,OPIATE,OPIATE,DRUG SCREEN,POSITIVE,,,,POSITIVE," ",," "," ",,,,URINE,CENTRAL LAB,Y,"BASELINE, ANY DAY PRIOR TO FIRST DOSE",0,2001,1
NIDA-CTN-0002,LB,02_002365,ACTIVE,23,OPIATE,OPIATE,DRUG SCREEN,POSITIVE,,,,POSITIVE," ",," "," ",,,,URINE,CENTRAL LAB,,STUDY DAY 3,3,2001,3
NIDA-CTN-0002,LB,02_002365,ACTIVE,30,OPIATE,OPIATE,DRUG SCREEN,NEGATIVE,,,,NEGATIVE," ",," "," ",,,,URINE,CENTRAL LAB,,STUDY DAY 7,7,2001,7
NIDA-CTN-0002,LB,02_002365,ACTIVE,37,OPIATE,OPIATE,DRUG SCREEN,NEGATIVE,,,,NEGATIVE," ",," "," ",,,,URINE,CENTRAL LAB,,STUDY DAY 11,11,2001,11
NIDA-CTN-0002,LB,02_002365,ACTIVE,54,OPIATE,OPIATE,DRUG SCREEN,NEGATIVE,,,,NEGATIVE," ",," "," ",,,,URINE,CENTRAL LAB,,STUDY DAY 14,14,2001,14
NIDA-CTN-0002,LB,02_002365,SCREENING,8,PCP,PCP,DRUG SCREEN,NEGATIVE,,,,NEGATIVE," ",," "," ",,,,URINE,ACCUTEST,Y,"BASELINE, ANY DAY PRIOR TO FIRST DOSE",0,2001,1
NIDA-CTN-0002,LB,02_002365,ACTIVE,46,PCP,PCP,DRUG SCREEN,NEGATIVE,,,,NEGATIVE," ",," "," ",,,,URINE,ACCUTEST,,STUDY DAY 14,14,2001,14
NIDA-CTN-0002,LB,02_002365,SCREENING,9,TCA,TCA,DRUG SCREEN,POSITIVE,,,,POSITIVE," ",," "," ",,,,URINE,ACCUTEST,Y,"BASELINE, ANY DAY PRIOR TO FIRST DOSE",0,2001,1
NIDA-CTN-0002,LB,02_002365,ACTIVE,47,TCA,TCA,DRUG SCREEN,NEGATIVE,,,,NEGATIVE," ",," "," ",,,,URINE,ACCUTEST,,STUDY DAY 14,14,2001,14
NIDA-CTN-0002,LB,02_002365,SCREENING,10,THC,THC,DRUG SCREEN,NEGATIVE,,,,NEGATIVE," ",," "," ",,,,URINE,ACCUTEST,Y,"BASELINE, ANY DAY PRIOR TO FIRST DOSE",0,2001,1
NIDA-CTN-0002,LB,02_002365,SCREENING,17,THC,THC,DRUG SCREEN,NEGATIVE,,,,NEGATIVE," ",," "," ",,,,URINE,CENTRAL LAB,Y,"BASELINE, ANY DAY PRIOR TO FIRST DOSE",0,2001,1
NIDA-CTN-0002,LB,02_002365,ACTIVE,24,THC,THC,DRUG SCREEN,NEGATIVE,,,,NEGATIVE," ",," "," ",,,,URINE,CENTRAL LAB,,STUDY DAY 3,3,2001,3
NIDA-CTN-0002,LB,02_002365,ACTIVE,31,THC,THC,DRUG SCREEN,NEGATIVE,,,,NEGATIVE," ",," "," ",,,,URINE,CENTRAL LAB,,STUDY DAY 7,7,2001,7
NIDA-CTN-0002,LB,02_002365,ACTIVE,38,THC,THC,DRUG SCREEN,NEGATIVE,,,,NEGATIVE," ",," "," ",,,,URINE,CENTRAL LAB,,STUDY DAY 11,11,2001,11
NIDA-CTN-0002,LB,02_002365,ACTIVE,48,THC,THC,DRUG SCREEN,NEGATIVE,,,,NEGATIVE," ",," "," ",,,,URINE,ACCUTEST,,STUDY DAY 14,14,2001,14
NIDA-CTN-0002,LB,02_002365,ACTIVE,55,THC,THC,DRUG SCREEN,NEGATIVE,,,,NEGATIVE," ",," "," ",,,,URINE,CENTRAL LAB,,STUDY DAY 14,14,2001,14
NIDA-CTN-0002,LB,02_002504,SCREENING,1,AMPHET,AMPHETAMINES,DRUG SCREEN,NEGATIVE,,,,NEGATIVE," ",," "," ",,,,URINE,ACCUTEST,Y,"BASELINE, ANY DAY PRIOR TO FIRST DOSE",0,2001,-1
NIDA-CTN-0002,LB,02_002504,SCREENING,11,AMPHET,AMPHETAMINES,DRUG SCREEN,NEGATIVE,,,,NEGATIVE," ",," "," ",,,,URINE,CENTRAL LAB,Y,"BASELINE, ANY DAY PRIOR TO FIRST DOSE",0,2001,-1
NIDA-CTN-0002,LB,02_002504,ACTIVE,18,AMPHET,AMPHETAMINES,DRUG SCREEN,NEGATIVE,,,,NEGATIVE," ",," "," ",,,,URINE,CENTRAL LAB,,STUDY DAY 3,3,2001,3
NIDA-CTN-0002,LB,02_002504,ACTIVE,25,AMPHET,AMPHETAMINES,DRUG SCREEN,NEGATIVE,,,,NEGATIVE," ",," "," ",,,,URINE,CENTRAL LAB,,STUDY DAY 8,8,2001,8
NIDA-CTN-0002,LB,02_002504,SCREENING,2,BARBIT,BARBITURATES,DRUG SCREEN,NEGATIVE,,,,NEGATIVE," ",," "," ",,,,URINE,ACCUTEST,Y,"BASELINE, ANY DAY PRIOR TO FIRST DOSE",0,2001,-1
NIDA-CTN-0002,LB,02_002504,SCREENING,3,BENZOD,BENZODIAZEPINES,DRUG SCREEN,POSITIVE,,,,POSITIVE," ",," "," ",,,,URINE,ACCUTEST,Y,"BASELINE, ANY DAY PRIOR TO FIRST DOSE",0,2001,-1
NIDA-CTN-0002,LB,02_002504,SCREENING,12,BENZOD,BENZODIAZEPINES,DRUG SCREEN,NEGATIVE,,,,NEGATIVE," ",," "," ",,,,URINE,CENTRAL LAB,Y,"BASELINE, ANY DAY PRIOR TO FIRST DOSE",0,2001,-1
NIDA-CTN-0002,LB,02_002504,ACTIVE,19,BENZOD,BENZODIAZEPINES,DRUG SCREEN,NEGATIVE,,,,NEGATIVE," ",," "," ",,,,URINE,CENTRAL LAB,,STUDY DAY 3,3,2001,3
NIDA-CTN-0002,LB,02_002504,ACTIVE,26,BENZOD,BENZODIAZEPINES,DRUG SCREEN,NEGATIVE,,,,NEGATIVE," ",," "," ",,,,URINE,CENTRAL LAB,,STUDY DAY 8,8,2001,8
NIDA-CTN-0002,LB,02_002504,SCREENING,4,COCAINE,COCAINE,DRUG SCREEN,NEGATIVE,,,,NEGATIVE," ",," "," ",,,,URINE,ACCUTEST,Y,"BASELINE, ANY DAY PRIOR TO FIRST DOSE",0,2001,-1
NIDA-CTN-0002,LB,02_002504,SCREENING,13,COCAINE,COCAINE,DRUG SCREEN,NEGATIVE,,,,NEGATIVE," ",," "," ",,,,URINE,CENTRAL LAB,Y,"BASELINE, ANY DAY PRIOR TO FIRST DOSE",0,2001,-1
NIDA-CTN-0002,LB,02_002504,ACTIVE,20,COCAINE,COCAINE,DRUG SCREEN,NEGATIVE,,,,NEGATIVE," ",," "," ",,,,URINE,CENTRAL LAB,,STUDY DAY 3,3,2001,3
NIDA-CTN-0002,LB,02_002504,ACTIVE,27,COCAINE,COCAINE,DRUG SCREEN,NEGATIVE,,,,NEGATIVE," ",," "," ",,,,URINE,CENTRAL LAB,,STUDY DAY 8,8,2001,8
NIDA-CTN-0002,LB,02_002504,SCREENING,14,CREAT,CREATININE,CHEMISTRY,98.0,mg/dL,,,98.0,98,mg/dL," "," ",,,,URINE,CENTRAL LAB,Y,"BASELINE, ANY DAY PRIOR TO FIRST DOSE",0,2001,-1
NIDA-CTN-0002,LB,02_002504,ACTIVE,21,CREAT,CREATININE,CHEMISTRY,36.7,mg/dL,,,36.7,36.7,mg/dL," "," ",,,,URINE,CENTRAL LAB,,STUDY DAY 3,3,2001,3
NIDA-CTN-0002,LB,02_002504,ACTIVE,28,CREAT,CREATININE,CHEMISTRY,27.5,mg/dL,,,27.5,27.5,mg/dL," "," ",,,,URINE,CENTRAL LAB,,STUDY DAY 8,8,2001,8
NIDA-CTN-0002,LB,02_002504,SCREENING,5,METH,METHAMPHETAMINE,DRUG SCREEN,NEGATIVE,,,,NEGATIVE," ",," "," ",,,,URINE,ACCUTEST,Y,"BASELINE, ANY DAY PRIOR TO FIRST DOSE",0,2001,-1
NIDA-CTN-0002,LB,02_002504,SCREENING,6,METHADON,METHADONE,DRUG SCREEN,NEGATIVE,,,,NEGATIVE," ",," "," ",,,,URINE,ACCUTEST,Y,"BASELINE, ANY DAY PRIOR TO FIRST DOSE",0,2001,-1
NIDA-CTN-0002,LB,02_002504,SCREENING,15,METHADON,METHADONE,DRUG SCREEN,NEGATIVE,,,,NEGATIVE," ",," "," ",,,,URINE,CENTRAL LAB,Y,"BASELINE, ANY DAY PRIOR TO FIRST DOSE",0,2001,-1
NIDA-CTN-0002,LB,02_002504,ACTIVE,22,METHADON,METHADONE,DRUG SCREEN,NEGATIVE,,,,NEGATIVE," ",," "," ",,,,URINE,CENTRAL LAB,,STUDY DAY 3,3,2001,3
NIDA-CTN-0002,LB,02_002504,ACTIVE,29,METHADON,METHADONE,DRUG SCREEN,NEGATIVE,,,,NEGATIVE," ",," "," ",,,,URINE,CENTRAL LAB,,STUDY DAY 8,8,2001,8
NIDA-CTN-0002,LB,02_002504,SCREENING,7,MORPHINE,MORPHINE,DRUG SCREEN,NEGATIVE,,,,NEGATIVE," ",," "," ",,,,URINE,ACCUTEST,Y,"BASELINE, ANY DAY PRIOR TO FIRST DOSE",0,2001,-1
NIDA-CTN-0002,LB,02_002504,ACTIVE,32,NONE,NONE,DRUG SCREEN,,,,,," ",," "," ",,NOT DONE,PATIENT DID NOT ATTEND,URINE,ACCUTEST,,STUDY DAY 10,10,2001,10
NIDA-CTN-0002,LB,02_002504,ACTIVE,33,NONE,NONE,DRUG SCREEN,,,,,," ",," "," ",,,,URINE,CENTRAL LAB,,STUDY DAY 10,10,2001,10
NIDA-CTN-0002,LB,02_002504,ACTIVE,34,NONE,NONE,DRUG SCREEN,,,,,," ",," "," ",,NOT DONE,PATIENT DID NOT ATTEND,URINE,CENTRAL LAB,,STUDY DAY 14,14,," "
NIDA-CTN-0002,LB,02_002504,FOLLOW-UP 1,35,NONE,NONE,DRUG SCREEN,,,,,," ",," "," ",,NOT DONE,PATIENT DID NOT ATTEND,URINE,CENTRAL LAB,,FOLLOW-UP 1,15,," "
NIDA-CTN-0002,LB,02_002504,FOLLOW-UP 2,36,NONE,NONE,DRUG SCREEN,,,,,," ",," "," ",,NOT DONE,PATIENT DID NOT ATTEND,URINE,CENTRAL LAB,,FOLLOW-UP 2,16,," "
NIDA-CTN-0002,LB,02_002504,FOLLOW-UP 3,37,NONE,NONE,DRUG SCREEN,,,,,," ",," "," ",,NOT DONE,PATIENT DID NOT ATTEND,URINE,CENTRAL LAB,,FOLLOW-UP 3,17,," "
NIDA-CTN-0002,LB,02_002504,SCREENING,16,OPIATE,OPIATE,DRUG SCREEN,NEGATIVE,,,,NEGATIVE," ",," "," ",,,,URINE,CENTRAL LAB,Y,"BASELINE, ANY DAY PRIOR TO FIRST DOSE",0,2001,-1
NIDA-CTN-0002,LB,02_002504,ACTIVE,23,OPIATE,OPIATE,DRUG SCREEN,NEGATIVE,,,,NEGATIVE," ",," "," ",,,,URINE,CENTRAL LAB,,STUDY DAY 3,3,2001,3
NIDA-CTN-0002,LB,02_002504,ACTIVE,30,OPIATE,OPIATE,DRUG SCREEN,NEGATIVE,,,,NEGATIVE," ",," "," ",,,,URINE,CENTRAL LAB,,STUDY DAY 8,8,2001,8
NIDA-CTN-0002,LB,02_002504,SCREENING,8,PCP,PCP,DRUG SCREEN,NEGATIVE,,,,NEGATIVE," ",," "," ",,,,URINE,ACCUTEST,Y,"BASELINE, ANY DAY PRIOR TO FIRST DOSE",0,2001,-1
NIDA-CTN-0002,LB,02_002504,SCREENING,9,TCA,TCA,DRUG SCREEN,NEGATIVE,,,,NEGATIVE," ",," "," ",,,,URINE,ACCUTEST,Y,"BASELINE, ANY DAY PRIOR TO FIRST DOSE",0,2001,-1
NIDA-CTN-0002,LB,02_002504,SCREENING,10,THC,THC,DRUG SCREEN,POSITIVE,,,,POSITIVE," ",," "," ",,,,URINE,ACCUTEST,Y,"BASELINE, ANY DAY PRIOR TO FIRST DOSE",0,2001,-1
NIDA-CTN-0002,LB,02_002504,SCREENING,17,THC,THC,DRUG SCREEN,POSITIVE,,,,POSITIVE," ",," "," ",,,,URINE,CENTRAL LAB,Y,"BASELINE, ANY DAY PRIOR TO FIRST DOSE",0,2001,-1
NIDA-CTN-0002,LB,02_002504,ACTIVE,24,THC,THC,DRUG SCREEN,POSITIVE,,,,POSITIVE," ",," "," ",,,,URINE,CENTRAL LAB,,STUDY DAY 3,3,2001,3
NIDA-CTN-0002,LB,02_002504,ACTIVE,31,THC,THC,DRUG SCREEN,POSITIVE,,,,POSITIVE," ",," "," ",,,,URINE,CENTRAL LAB,,STUDY DAY 8,8,2001,8
NIDA-CTN-0002,LB,02_002823,SCREENING,1,AMPHET,AMPHETAMINES,DRUG SCREEN,NEGATIVE,,,,NEGATIVE," ",," "," ",,,,URINE,ACCUTEST,Y,"BASELINE, ANY DAY PRIOR TO FIRST DOSE",0,2001," "
NIDA-CTN-0002,LB,02_002823,SCREENING,2,BARBIT,BARBITURATES,DRUG SCREEN,NEGATIVE,,,,NEGATIVE," ",," "," ",,,,URINE,ACCUTEST,Y,"BASELINE, ANY DAY PRIOR TO FIRST DOSE",0,2001," "
NIDA-CTN-0002,LB,02_002823,SCREENING,3,BENZOD,BENZODIAZEPINES,DRUG SCREEN,NEGATIVE,,,,NEGATIVE," ",," "," ",,,,URINE,ACCUTEST,Y,"BASELINE, ANY DAY PRIOR TO FIRST DOSE",0,2001," "
NIDA-CTN-0002,LB,02_002823,SCREENING,4,COCAINE,COCAINE,DRUG SCREEN,NEGATIVE,,,,NEGATIVE," ",," "," ",,,,URINE,ACCUTEST,Y,"BASELINE, ANY DAY PRIOR TO FIRST DOSE",0,2001," "
NIDA-CTN-0002,LB,02_002823,SCREENING,5,METH,METHAMPHETAMINE,DRUG SCREEN,NEGATIVE,,,,NEGATIVE," ",," "," ",,,,URINE,ACCUTEST,Y,"BASELINE, ANY DAY PRIOR TO FIRST DOSE",0,2001," "
NIDA-CTN-0002,LB,02_002823,SCREENING,6,MORPHINE,MORPHINE,DRUG SCREEN,POSITIVE,,,,POSITIVE," ",," "," ",,,,URINE,ACCUTEST,Y,"BASELINE, ANY DAY PRIOR TO FIRST DOSE",0,2001," "
NIDA-CTN-0002,LB,02_002823,SCREENING,9,NONE,NONE,DRUG SCREEN,,,,,," ",," "," ",,,,URINE,CENTRAL LAB,Y,"BASELINE, ANY DAY PRIOR TO FIRST DOSE",0,2001," "
NIDA-CTN-0002,LB,02_002823,SCREENING,7,PCP,PCP,DRUG SCREEN,NEGATIVE,,,,NEGATIVE," ",," "," ",,,,URINE,ACCUTEST,Y,"BASELINE, ANY DAY PRIOR TO FIRST DOSE",0,2001," "
NIDA-CTN-0002,LB,02_002823,SCREENING,8,THC,THC,DRUG SCREEN,NEGATIVE,,,,NEGATIVE," ",," "," ",,,,URINE,ACCUTEST,Y,"BASELINE, ANY DAY PRIOR TO FIRST DOSE",0,2001," "
NIDA-CTN-0002,LB,02_003272,SCREENING,1,AMPHET,AMPHETAMINES,DRUG SCREEN,NEGATIVE,,,,NEGATIVE," ",," "," ",,,,URINE,ACCUTEST,Y,"BASELINE, ANY DAY PRIOR TO FIRST DOSE",0,2001,-1
NIDA-CTN-0002,LB,02_003272,SCREENING,11,AMPHET,AMPHETAMINES,DRUG SCREEN,NEGATIVE,,,,NEGATIVE," ",," "," ",,,,URINE,CENTRAL LAB,Y,"BASELINE, ANY DAY PRIOR TO FIRST DOSE",0,2001,-1
NIDA-CTN-0002,LB,02_003272,ACTIVE,18,AMPHET,AMPHETAMINES,DRUG SCREEN,NEGATIVE,,,,NEGATIVE," ",," "," ",,,,URINE,CENTRAL LAB,,STUDY DAY 3,3,2001,3
NIDA-CTN-0002,LB,02_003272,ACTIVE,25,AMPHET,AMPHETAMINES,DRUG SCREEN,NEGATIVE,,,,NEGATIVE," ",," "," ",,,,URINE,CENTRAL LAB,,STUDY DAY 7,7,2001,7
NIDA-CTN-0002,LB,02_003272,ACTIVE,32,AMPHET,AMPHETAMINES,DRUG SCREEN,NEGATIVE,,,,NEGATIVE," ",," "," ",,,,URINE,CENTRAL LAB,,STUDY DAY 10,10,2001,10
NIDA-CTN-0002,LB,02_003272,ACTIVE,39,AMPHET,AMPHETAMINES,DRUG SCREEN,NEGATIVE,,,,NEGATIVE," ",," "," ",,,,URINE,ACCUTEST,,STUDY DAY 14,14,2001,14
NIDA-CTN-0002,LB,02_003272,ACTIVE,49,AMPHET,AMPHETAMINES,DRUG SCREEN,NEGATIVE,,,,NEGATIVE," ",," "," ",,,,URINE,CENTRAL LAB,,STUDY DAY 14,14,2001,14
NIDA-CTN-0002,LB,02_003272,FOLLOW-UP 1,56,AMPHET,AMPHETAMINES,DRUG SCREEN,NEGATIVE,,,,NEGATIVE," ",," "," ",,,,URINE,CENTRAL LAB,,FOLLOW-UP 1,15,2001,37
NIDA-CTN-0002,LB,02_003272,FOLLOW-UP 2,63,AMPHET,AMPHETAMINES,DRUG SCREEN,NEGATIVE,,,,NEGATIVE," ",," "," ",,,,URINE,CENTRAL LAB,,FOLLOW-UP 2,16,2002,108
NIDA-CTN-0002,LB,02_003272,SCREENING,2,BARBIT,BARBITURATES,DRUG SCREEN,POSITIVE,,,,POSITIVE," ",," "," ",,,,URINE,ACCUTEST,Y,"BASELINE, ANY DAY PRIOR TO FIRST DOSE",0,2001,-1
NIDA-CTN-0002,LB,02_003272,ACTIVE,40,BARBIT,BARBITURATES,DRUG SCREEN,NEGATIVE,,,,NEGATIVE," ",," "," ",,,,URINE,ACCUTEST,,STUDY DAY 14,14,2001,14
NIDA-CTN-0002,LB,02_003272,SCREENING,3,BENZOD,BENZODIAZEPINES,DRUG SCREEN,NEGATIVE,,,,NEGATIVE," ",," "," ",,,,URINE,ACCUTEST,Y,"BASELINE, ANY DAY PRIOR TO FIRST DOSE",0,2001,-1
NIDA-CTN-0002,LB,02_003272,SCREENING,12,BENZOD,BENZODIAZEPINES,DRUG SCREEN,NEGATIVE,,,,NEGATIVE," ",," "," ",,,,URINE,CENTRAL LAB,Y,"BASELINE, ANY DAY PRIOR TO FIRST DOSE",0,2001,-1
NIDA-CTN-0002,LB,02_003272,ACTIVE,19,BENZOD,BENZODIAZEPINES,DRUG SCREEN,NEGATIVE,,,,NEGATIVE," ",," "," ",,,,URINE,CENTRAL LAB,,STUDY DAY 3,3,2001,3
NIDA-CTN-0002,LB,02_003272,ACTIVE,26,BENZOD,BENZODIAZEPINES,DRUG SCREEN,NEGATIVE,,,,NEGATIVE," ",," "," ",,,,URINE,CENTRAL LAB,,STUDY DAY 7,7,2001,7
NIDA-CTN-0002,LB,02_003272,ACTIVE,33,BENZOD,BENZODIAZEPINES,DRUG SCREEN,NEGATIVE,,,,NEGATIVE," ",," "," ",,,,URINE,CENTRAL LAB,,STUDY DAY 10,10,2001,10
NIDA-CTN-0002,LB,02_003272,ACTIVE,41,BENZOD,BENZODIAZEPINES,DRUG SCREEN,NEGATIVE,,,,NEGATIVE," ",," "," ",,,,URINE,ACCUTEST,,STUDY DAY 14,14,2001,14
NIDA-CTN-0002,LB,02_003272,ACTIVE,50,BENZOD,BENZODIAZEPINES,DRUG SCREEN,NEGATIVE,,,,NEGATIVE," ",," "," ",,,,URINE,CENTRAL LAB,,STUDY DAY 14,14,2001,14
NIDA-CTN-0002,LB,02_003272,FOLLOW-UP 1,57,BENZOD,BENZODIAZEPINES,DRUG SCREEN,NEGATIVE,,,,NEGATIVE," ",," "," ",,,,URINE,CENTRAL LAB,,FOLLOW-UP 1,15,2001,37
NIDA-CTN-0002,LB,02_003272,FOLLOW-UP 2,64,BENZOD,BENZODIAZEPINES,DRUG SCREEN,NEGATIVE,,,,NEGATIVE," ",," "," ",,,,URINE,CENTRAL LAB,,FOLLOW-UP 2,16,2002,108
NIDA-CTN-0002,LB,02_003272,SCREENING,4,COCAINE,COCAINE,DRUG SCREEN,NEGATIVE,,,,NEGATIVE," ",," "," ",,,,URINE,ACCUTEST,Y,"BASELINE, ANY DAY PRIOR TO FIRST DOSE",0,2001,-1
NIDA-CTN-0002,LB,02_003272,SCREENING,13,COCAINE,COCAINE,DRUG SCREEN,NEGATIVE,,,,NEGATIVE," ",," "," ",,,,URINE,CENTRAL LAB,Y,"BASELINE, ANY DAY PRIOR TO FIRST DOSE",0,2001,-1
NIDA-CTN-0002,LB,02_003272,ACTIVE,20,COCAINE,COCAINE,DRUG SCREEN,NEGATIVE,,,,NEGATIVE," ",," "," ",,,,URINE,CENTRAL LAB,,STUDY DAY 3,3,2001,3
NIDA-CTN-0002,LB,02_003272,ACTIVE,27,COCAINE,COCAINE,DRUG SCREEN,NEGATIVE,,,,NEGATIVE," ",," "," ",,,,URINE,CENTRAL LAB,,STUDY DAY 7,7,2001,7
NIDA-CTN-0002,LB,02_003272,ACTIVE,34,COCAINE,COCAINE,DRUG SCREEN,NEGATIVE,,,,NEGATIVE," ",," "," ",,,,URINE,CENTRAL LAB,,STUDY DAY 10,10,2001,10
NIDA-CTN-0002,LB,02_003272,ACTIVE,42,COCAINE,COCAINE,DRUG SCREEN,NEGATIVE,,,,NEGATIVE," ",," "," ",,,,URINE,ACCUTEST,,STUDY DAY 14,14,2001,14
NIDA-CTN-0002,LB,02_003272,ACTIVE,51,COCAINE,COCAINE,DRUG SCREEN,NEGATIVE,,,,NEGATIVE," ",," "," ",,,,URINE,CENTRAL LAB,,STUDY DAY 14,14,2001,14
NIDA-CTN-0002,LB,02_003272,FOLLOW-UP 1,58,COCAINE,COCAINE,DRUG SCREEN,NEGATIVE,,,,NEGATIVE," ",," "," ",,,,URINE,CENTRAL LAB,,FOLLOW-UP 1,15,2001,37
NIDA-CTN-0002,LB,02_003272,FOLLOW-UP 2,65,COCAINE,COCAINE,DRUG SCREEN,NEGATIVE,,,,NEGATIVE," ",," "," ",,,,URINE,CENTRAL LAB,,FOLLOW-UP 2,16,2002,108
NIDA-CTN-0002,LB,02_003272,SCREENING,14,CREAT,CREATININE,CHEMISTRY,78.0,mg/dL,,,78.0,78,mg/dL," "," ",,,,URINE,CENTRAL LAB,Y,"BASELINE, ANY DAY PRIOR TO FIRST DOSE",0,2001,-1
NIDA-CTN-0002,LB,02_003272,ACTIVE,21,CREAT,CREATININE,CHEMISTRY,47.7,mg/dL,,,47.7,47.7,mg/dL," "," ",,,,URINE,CENTRAL LAB,,STUDY DAY 3,3,2001,3
NIDA-CTN-0002,LB,02_003272,ACTIVE,28,CREAT,CREATININE,CHEMISTRY,77.8,mg/dL,,,77.8,77.8,mg/dL," "," ",,,,URINE,CENTRAL LAB,,STUDY DAY 7,7,2001,7
NIDA-CTN-0002,LB,02_003272,ACTIVE,35,CREAT,CREATININE,CHEMISTRY,128.1,mg/dL,,,128.1,128.1,mg/dL," "," ",,,,URINE,CENTRAL LAB,,STUDY DAY 10,10,2001,10
NIDA-CTN-0002,LB,02_003272,ACTIVE,52,CREAT,CREATININE,CHEMISTRY,128.3,mg/dL,,,128.3,128.3,mg/dL," "," ",,,,URINE,CENTRAL LAB,,STUDY DAY 14,14,2001,14
NIDA-CTN-0002,LB,02_003272,FOLLOW-UP 1,59,CREAT,CREATININE,CHEMISTRY,121.6,mg/dL,,,121.6,121.6,mg/dL," "," ",,,,URINE,CENTRAL LAB,,FOLLOW-UP 1,15,2001,37
NIDA-CTN-0002,LB,02_003272,FOLLOW-UP 2,66,CREAT,CREATININE,CHEMISTRY,85.8,mg/dL,,,85.8,85.8,mg/dL," "," ",,,,URINE,CENTRAL LAB,,FOLLOW-UP 2,16,2002,108
NIDA-CTN-0002,LB,02_003272,SCREENING,5,METH,METHAMPHETAMINE,DRUG SCREEN,NEGATIVE,,,,NEGATIVE," ",," "," ",,,,URINE,ACCUTEST,Y,"BASELINE, ANY DAY PRIOR TO FIRST DOSE",0,2001,-1
NIDA-CTN-0002,LB,02_003272,ACTIVE,43,METH,METHAMPHETAMINE,DRUG SCREEN,POSITIVE,,,,POSITIVE," ",," "," ",,,,URINE,ACCUTEST,,STUDY DAY 14,14,2001,14
NIDA-CTN-0002,LB,02_003272,SCREENING,6,METHADON,METHADONE,DRUG SCREEN,NEGATIVE,,,,NEGATIVE," ",," "," ",,,,URINE,ACCUTEST,Y,"BASELINE, ANY DAY PRIOR TO FIRST DOSE",0,2001,-1
NIDA-CTN-0002,LB,02_003272,SCREENING,15,METHADON,METHADONE,DRUG SCREEN,NEGATIVE,,,,NEGATIVE," ",," "," ",,,,URINE,CENTRAL LAB,Y,"BASELINE, ANY DAY PRIOR TO FIRST DOSE",0,2001,-1
NIDA-CTN-0002,LB,02_003272,ACTIVE,22,METHADON,METHADONE,DRUG SCREEN,NEGATIVE,,,,NEGATIVE," ",," "," ",,,,URINE,CENTRAL LAB,,STUDY DAY 3,3,2001,3
NIDA-CTN-0002,LB,02_003272,ACTIVE,29,METHADON,METHADONE,DRUG SCREEN,NEGATIVE,,,,NEGATIVE," ",," "," ",,,,URINE,CENTRAL LAB,,STUDY DAY 7,7,2001,7
NIDA-CTN-0002,LB,02_003272,ACTIVE,36,METHADON,METHADONE,DRUG SCREEN,NEGATIVE,,,,NEGATIVE," ",," "," ",,,,URINE,CENTRAL LAB,,STUDY DAY 10,10,2001,10
NIDA-CTN-0002,LB,02_003272,ACTIVE,44,METHADON,METHADONE,DRUG SCREEN,NEGATIVE,,,,NEGATIVE," ",," "," ",,,,URINE,ACCUTEST,,STUDY DAY 14,14,2001,14
NIDA-CTN-0002,LB,02_003272,ACTIVE,53,METHADON,METHADONE,DRUG SCREEN,NEGATIVE,,,,NEGATIVE," ",," "," ",,,,URINE,CENTRAL LAB,,STUDY DAY 14,14,2001,14
NIDA-CTN-0002,LB,02_003272,FOLLOW-UP 1,60,METHADON,METHADONE,DRUG SCREEN,NEGATIVE,,,,NEGATIVE," ",," "," ",,,,URINE,CENTRAL LAB,,FOLLOW-UP 1,15,2001,37
NIDA-CTN-0002,LB,02_003272,FOLLOW-UP 2,67,METHADON,METHADONE,DRUG SCREEN,NEGATIVE,,,,NEGATIVE," ",," "," ",,,,URINE,CENTRAL LAB,,FOLLOW-UP 2,16,2002,108
NIDA-CTN-0002,LB,02_003272,SCREENING,7,MORPHINE,MORPHINE,DRUG SCREEN,POSITIVE,,,,POSITIVE," ",," "," ",,,,URINE,ACCUTEST,Y,"BASELINE, ANY DAY PRIOR TO FIRST DOSE",0,2001,-1
NIDA-CTN-0002,LB,02_003272,ACTIVE,45,MORPHINE,MORPHINE,DRUG SCREEN,NEGATIVE,,,,NEGATIVE," ",," "," ",,,,URINE,ACCUTEST,,STUDY DAY 14,14,2001,14
NIDA-CTN-0002,LB,02_003272,FOLLOW-UP 3,70,NONE,NONE,DRUG SCREEN,,,,,," ",," "," ",,,,URINE,CENTRAL LAB,,FOLLOW-UP 3,17,2002,206
NIDA-CTN-0002,LB,02_003272,SCREENING,16,OPIATE,OPIATE,DRUG SCREEN,POSITIVE,,,,POSITIVE," ",," "," ",,,,URINE,CENTRAL LAB,Y,"BASELINE, ANY DAY PRIOR TO FIRST DOSE",0,2001,-1
NIDA-CTN-0002,LB,02_003272,ACTIVE,23,OPIATE,OPIATE,DRUG SCREEN,NEGATIVE,,,,NEGATIVE," ",," "," ",,,,URINE,CENTRAL LAB,,STUDY DAY 3,3,2001,3
NIDA-CTN-0002,LB,02_003272,ACTIVE,30,OPIATE,OPIATE,DRUG SCREEN,NEGATIVE,,,,NEGATIVE," ",," "," ",,,,URINE,CENTRAL LAB,,STUDY DAY 7,7,2001,7
NIDA-CTN-0002,LB,02_003272,ACTIVE,37,OPIATE,OPIATE,DRUG SCREEN,NEGATIVE,,,,NEGATIVE," ",," "," ",,,,URINE,CENTRAL LAB,,STUDY DAY 10,10,2001,10
NIDA-CTN-0002,LB,02_003272,ACTIVE,54,OPIATE,OPIATE,DRUG SCREEN,NEGATIVE,,,,NEGATIVE," ",," "," ",,,,URINE,CENTRAL LAB,,STUDY DAY 14,14,2001,14
NIDA-CTN-0002,LB,02_003272,FOLLOW-UP 1,61,OPIATE,OPIATE,DRUG SCREEN,NEGATIVE,,,,NEGATIVE," ",," "," ",,,,URINE,CENTRAL LAB,,FOLLOW-UP 1,15,2001,37
NIDA-CTN-0002,LB,02_003272,FOLLOW-UP 2,68,OPIATE,OPIATE,DRUG SCREEN,NEGATIVE,,,,NEGATIVE," ",," "," ",,,,URINE,CENTRAL LAB,,FOLLOW-UP 2,16,2002,108
NIDA-CTN-0002,LB,02_003272,SCREENING,8,PCP,PCP,DRUG SCREEN,NEGATIVE,,,,NEGATIVE," ",," "," ",,,,URINE,ACCUTEST,Y,"BASELINE, ANY DAY PRIOR TO FIRST DOSE",0,2001,-1
NIDA-CTN-0002,LB,02_003272,ACTIVE,46,PCP,PCP,DRUG SCREEN,NEGATIVE,,,,NEGATIVE," ",," "," ",,,,URINE,ACCUTEST,,STUDY DAY 14,14,2001,14
NIDA-CTN-0002,LB,02_003272,SCREENING,9,TCA,TCA,DRUG SCREEN,NEGATIVE,,,,NEGATIVE," ",," "," ",,,,URINE,ACCUTEST,Y,"BASELINE, ANY DAY PRIOR TO FIRST DOSE",0,2001,-1
NIDA-CTN-0002,LB,02_003272,ACTIVE,47,TCA,TCA,DRUG SCREEN,NEGATIVE,,,,NEGATIVE," ",," "," ",,,,URINE,ACCUTEST,,STUDY DAY 14,14,2001,14
NIDA-CTN-0002,LB,02_003272,SCREENING,10,THC,THC,DRUG SCREEN,NEGATIVE,,,,NEGATIVE," ",," "," ",,,,URINE,ACCUTEST,Y,"BASELINE, ANY DAY PRIOR TO FIRST DOSE",0,2001,-1
NIDA-CTN-0002,LB,02_003272,SCREENING,17,THC,THC,DRUG SCREEN,NEGATIVE,,,,NEGATIVE," ",," "," ",,,,URINE,CENTRAL LAB,Y,"BASELINE, ANY DAY PRIOR TO FIRST DOSE",0,2001,-1
NIDA-CTN-0002,LB,02_003272,ACTIVE,24,THC,THC,DRUG SCREEN,NEGATIVE,,,,NEGATIVE," ",," "," ",,,,URINE,CENTRAL LAB,,STUDY DAY 3,3,2001,3
NIDA-CTN-0002,LB,02_003272,ACTIVE,31,THC,THC,DRUG SCREEN,NEGATIVE,,,,NEGATIVE," ",," "," ",,,,URINE,CENTRAL LAB,,STUDY DAY 7,7,2001,7
NIDA-CTN-0002,LB,02_003272,ACTIVE,38,THC,THC,DRUG SCREEN,NEGATIVE,,,,NEGATIVE," ",," "," ",,,,URINE,CENTRAL LAB,,STUDY DAY 10,10,2001,10
NIDA-CTN-0002,LB,02_003272,ACTIVE,48,THC,THC,DRUG SCREEN,NEGATIVE,,,,NEGATIVE," ",," "," ",,,,URINE,ACCUTEST,,STUDY DAY 14,14,2001,14
NIDA-CTN-0002,LB,02_003272,ACTIVE,55,THC,THC,DRUG SCREEN,NEGATIVE,,,,NEGATIVE," ",," "," ",,,,URINE,CENTRAL LAB,,STUDY DAY 14,14,2001,14
NIDA-CTN-0002,LB,02_003272,FOLLOW-UP 1,62,THC,THC,DRUG SCREEN,NEGATIVE,,,,NEGATIVE," ",," "," ",,,,URINE,CENTRAL LAB,,FOLLOW-UP 1,15,2001,37
NIDA-CTN-0002,LB,02_003272,FOLLOW-UP 2,69,THC,THC,DRUG SCREEN,NEGATIVE,,,,NEGATIVE," ",," "," ",,,,URINE,CENTRAL LAB,,FOLLOW-UP 2,16,2002,108
NIDA-CTN-0002,LB,02_003371,SCREENING,1,AMPHET,AMPHETAMINES,DRUG SCREEN,NEGATIVE,,,,NEGATIVE," ",," "," ",,,,URINE,ACCUTEST,Y,"BASELINE, ANY DAY PRIOR TO FIRST DOSE",0,2001," "
NIDA-CTN-0002,LB,02_003371,SCREENING,11,AMPHET,AMPHETAMINES,DRUG SCREEN,NEGATIVE,,,,NEGATIVE," ",," "," ",,,,URINE,CENTRAL LAB,Y,"BASELINE, ANY DAY PRIOR TO FIRST DOSE",0,2001," "
NIDA-CTN-0002,LB,02_003371,SCREENING,2,BARBIT,BARBITURATES,DRUG SCREEN,NEGATIVE,,,,NEGATIVE," ",," "," ",,,,URINE,ACCUTEST,Y,"BASELINE, ANY DAY PRIOR TO FIRST DOSE",0,2001," "
NIDA-CTN-0002,LB,02_003371,SCREENING,3,BENZOD,BENZODIAZEPINES,DRUG SCREEN,NEGATIVE,,,,NEGATIVE," ",," "," ",,,,URINE,ACCUTEST,Y,"BASELINE, ANY DAY PRIOR TO FIRST DOSE",0,2001," "
NIDA-CTN-0002,LB,02_003371,SCREENING,12,BENZOD,BENZODIAZEPINES,DRUG SCREEN,NEGATIVE,,,,NEGATIVE," ",," "," ",,,,URINE,CENTRAL LAB,Y,"BASELINE, ANY DAY PRIOR TO FIRST DOSE",0,2001," "
NIDA-CTN-0002,LB,02_003371,SCREENING,4,COCAINE,COCAINE,DRUG SCREEN,NEGATIVE,,,,NEGATIVE," ",," "," ",,,,URINE,ACCUTEST,Y,"BASELINE, ANY DAY PRIOR TO FIRST DOSE",0,2001," "
NIDA-CTN-0002,LB,02_003371,SCREENING,13,COCAINE,COCAINE,DRUG SCREEN,NEGATIVE,,,,NEGATIVE," ",," "," ",,,,URINE,CENTRAL LAB,Y,"BASELINE, ANY DAY PRIOR TO FIRST DOSE",0,2001," "
NIDA-CTN-0002,LB,02_003371,SCREENING,14,CREAT,CREATININE,CHEMISTRY,148.7,mg/dL,,,148.7,148.7,mg/dL," "," ",,,,URINE,CENTRAL LAB,Y,"BASELINE, ANY DAY PRIOR TO FIRST DOSE",0,2001," "
NIDA-CTN-0002,LB,02_003371,SCREENING,5,METH,METHAMPHETAMINE,DRUG SCREEN,NEGATIVE,,,,NEGATIVE," ",," "," ",,,,URINE,ACCUTEST,Y,"BASELINE, ANY DAY PRIOR TO FIRST DOSE",0,2001," "
NIDA-CTN-0002,LB,02_003371,SCREENING,6,METHADON,METHADONE,DRUG SCREEN,NEGATIVE,,,,NEGATIVE," ",," "," ",,,,URINE,ACCUTEST,Y,"BASELINE, ANY DAY PRIOR TO FIRST DOSE",0,2001," "
NIDA-CTN-0002,LB,02_003371,SCREENING,15,METHADON,METHADONE,DRUG SCREEN,NEGATIVE,,,,NEGATIVE," ",," "," ",,,,URINE,CENTRAL LAB,Y,"BASELINE, ANY DAY PRIOR TO FIRST DOSE",0,2001," "
NIDA-CTN-0002,LB,02_003371,SCREENING,7,MORPHINE,MORPHINE,DRUG SCREEN,POSITIVE,,,,POSITIVE," ",," "," ",,,,URINE,ACCUTEST,Y,"BASELINE, ANY DAY PRIOR TO FIRST DOSE",0,2001," "
NIDA-CTN-0002,LB,02_003371,SCREENING,16,OPIATE,OPIATE,DRUG SCREEN,POSITIVE,,,,POSITIVE," ",," "," ",,,,URINE,CENTRAL LAB,Y,"BASELINE, ANY DAY PRIOR TO FIRST DOSE",0,2001," "
NIDA-CTN-0002,LB,02_003371,SCREENING,8,PCP,PCP,DRUG SCREEN,NEGATIVE,,,,NEGATIVE," ",," "," ",,,,URINE,ACCUTEST,Y,"BASELINE, ANY DAY PRIOR TO FIRST DOSE",0,2001," "
NIDA-CTN-0002,LB,02_003371,SCREENING,9,TCA,TCA,DRUG SCREEN,NEGATIVE,,,,NEGATIVE," ",," "," ",,,,URINE,ACCUTEST,Y,"BASELINE, ANY DAY PRIOR TO FIRST DOSE",0,2001," "
NIDA-CTN-0002,LB,02_003371,SCREENING,10,THC,THC,DRUG SCREEN,NEGATIVE,,,,NEGATIVE," ",," "," ",,,,URINE,ACCUTEST,Y,"BASELINE, ANY DAY PRIOR TO FIRST DOSE",0,2001," "
NIDA-CTN-0002,LB,02_003371,SCREENING,17,THC,THC,DRUG SCREEN,POSITIVE,,,,POSITIVE," ",," "," ",,,,URINE,CENTRAL LAB,Y,"BASELINE, ANY DAY PRIOR TO FIRST DOSE",0,2001," "
NIDA-CTN-0002,LB,02_003614,SCREENING,1,AMPHET,AMPHETAMINES,DRUG SCREEN,NEGATIVE,,,,NEGATIVE," ",," "," ",,,,URINE,ACCUTEST,Y,"BASELINE, ANY DAY PRIOR TO FIRST DOSE",0,2002,1
NIDA-CTN-0002,LB,02_003614,SCREENING,11,AMPHET,AMPHETAMINES,DRUG SCREEN,NEGATIVE,,,,NEGATIVE," ",," "," ",,,,URINE,CENTRAL LAB,Y,"BASELINE, ANY DAY PRIOR TO FIRST DOSE",0,2002,1
NIDA-CTN-0002,LB,02_003614,ACTIVE,18,AMPHET,AMPHETAMINES,DRUG SCREEN,NEGATIVE,,,,NEGATIVE," ",," "," ",,,,URINE,CENTRAL LAB,,STUDY DAY 3,3,2002,3
NIDA-CTN-0002,LB,02_003614,ACTIVE,25,AMPHET,AMPHETAMINES,DRUG SCREEN,NEGATIVE,,,,NEGATIVE," ",," "," ",,,,URINE,CENTRAL LAB,,STUDY DAY 8,8,2002,8
NIDA-CTN-0002,LB,02_003614,ACTIVE,32,AMPHET,AMPHETAMINES,DRUG SCREEN,NEGATIVE,,,,NEGATIVE," ",," "," ",,,,URINE,CENTRAL LAB,,STUDY DAY 11,11,2002,11
NIDA-CTN-0002,LB,02_003614,ACTIVE,39,AMPHET,AMPHETAMINES,DRUG SCREEN,NEGATIVE,,,,NEGATIVE," ",," "," ",,,,URINE,ACCUTEST,,STUDY DAY 14,14,2002,14
NIDA-CTN-0002,LB,02_003614,ACTIVE,49,AMPHET,AMPHETAMINES,DRUG SCREEN,NEGATIVE,,,,NEGATIVE," ",," "," ",,,,URINE,CENTRAL LAB,,STUDY DAY 14,14,2002,14
NIDA-CTN-0002,LB,02_003614,FOLLOW-UP 1,56,AMPHET,AMPHETAMINES,DRUG SCREEN,NEGATIVE,,,,NEGATIVE," ",," "," ",,,,URINE,CENTRAL LAB,,FOLLOW-UP 1,15,2002,30
NIDA-CTN-0002,LB,02_003614,SCREENING,2,BARBIT,BARBITURATES,DRUG SCREEN,NEGATIVE,,,,NEGATIVE," ",," "," ",,,,URINE,ACCUTEST,Y,"BASELINE, ANY DAY PRIOR TO FIRST DOSE",0,2002,1
NIDA-CTN-0002,LB,02_003614,ACTIVE,40,BARBIT,BARBITURATES,DRUG SCREEN,NEGATIVE,,,,NEGATIVE," ",," "," ",,,,URINE,ACCUTEST,,STUDY DAY 14,14,2002,14
NIDA-CTN-0002,LB,02_003614,SCREENING,3,BENZOD,BENZODIAZEPINES,DRUG SCREEN,NEGATIVE,,,,NEGATIVE," ",," "," ",,,,URINE,ACCUTEST,Y,"BASELINE, ANY DAY PRIOR TO FIRST DOSE",0,2002,1
NIDA-CTN-0002,LB,02_003614,SCREENING,12,BENZOD,BENZODIAZEPINES,DRUG SCREEN,NEGATIVE,,,,NEGATIVE," ",," "," ",,,,URINE,CENTRAL LAB,Y,"BASELINE, ANY DAY PRIOR TO FIRST DOSE",0,2002,1
NIDA-CTN-0002,LB,02_003614,ACTIVE,19,BENZOD,BENZODIAZEPINES,DRUG SCREEN,NEGATIVE,,,,NEGATIVE," ",," "," ",,,,URINE,CENTRAL LAB,,STUDY DAY 3,3,2002,3
NIDA-CTN-0002,LB,02_003614,ACTIVE,26,BENZOD,BENZODIAZEPINES,DRUG SCREEN,NEGATIVE,,,,NEGATIVE," ",," "," ",,,,URINE,CENTRAL LAB,,STUDY DAY 8,8,2002,8
NIDA-CTN-0002,LB,02_003614,ACTIVE,33,BENZOD,BENZODIAZEPINES,DRUG SCREEN,NEGATIVE,,,,NEGATIVE," ",," "," ",,,,URINE,CENTRAL LAB,,STUDY DAY 11,11,2002,11
NIDA-CTN-0002,LB,02_003614,ACTIVE,41,BENZOD,BENZODIAZEPINES,DRUG SCREEN,NEGATIVE,,,,NEGATIVE," ",," "," ",,,,URINE,ACCUTEST,,STUDY DAY 14,14,2002,14
NIDA-CTN-0002,LB,02_003614,ACTIVE,50,BENZOD,BENZODIAZEPINES,DRUG SCREEN,NEGATIVE,,,,NEGATIVE," ",," "," ",,,,URINE,CENTRAL LAB,,STUDY DAY 14,14,2002,14
NIDA-CTN-0002,LB,02_003614,FOLLOW-UP 1,57,BENZOD,BENZODIAZEPINES,DRUG SCREEN,NEGATIVE,,,,NEGATIVE," ",," "," ",,,,URINE,CENTRAL LAB,,FOLLOW-UP 1,15,2002,30
NIDA-CTN-0002,LB,02_003614,SCREENING,4,COCAINE,COCAINE,DRUG SCREEN,NEGATIVE,,,,NEGATIVE," ",," "," ",,,,URINE,ACCUTEST,Y,"BASELINE, ANY DAY PRIOR TO FIRST DOSE",0,2002,1
NIDA-CTN-0002,LB,02_003614,SCREENING,13,COCAINE,COCAINE,DRUG SCREEN,NEGATIVE,,,,NEGATIVE," ",," "," ",,,,URINE,CENTRAL LAB,Y,"BASELINE, ANY DAY PRIOR TO FIRST DOSE",0,2002,1
NIDA-CTN-0002,LB,02_003614,ACTIVE,20,COCAINE,COCAINE,DRUG SCREEN,NEGATIVE,,,,NEGATIVE," ",," "," ",,,,URINE,CENTRAL LAB,,STUDY DAY 3,3,2002,3
NIDA-CTN-0002,LB,02_003614,ACTIVE,27,COCAINE,COCAINE,DRUG SCREEN,NEGATIVE,,,,NEGATIVE," ",," "," ",,,,URINE,CENTRAL LAB,,STUDY DAY 8,8,2002,8
NIDA-CTN-0002,LB,02_003614,ACTIVE,34,COCAINE,COCAINE,DRUG SCREEN,NEGATIVE,,,,NEGATIVE," ",," "," ",,,,URINE,CENTRAL LAB,,STUDY DAY 11,11,2002,11
NIDA-CTN-0002,LB,02_003614,ACTIVE,42,COCAINE,COCAINE,DRUG SCREEN,NEGATIVE,,,,NEGATIVE," ",," "," ",,,,URINE,ACCUTEST,,STUDY DAY 14,14,2002,14
NIDA-CTN-0002,LB,02_003614,ACTIVE,51,COCAINE,COCAINE,DRUG SCREEN,NEGATIVE,,,,NEGATIVE," ",," "," ",,,,URINE,CENTRAL LAB,,STUDY DAY 14,14,2002,14
NIDA-CTN-0002,LB,02_003614,FOLLOW-UP 1,58,COCAINE,COCAINE,DRUG SCREEN,NEGATIVE,,,,NEGATIVE," ",," "," ",,,,URINE,CENTRAL LAB,,FOLLOW-UP 1,15,2002,30
NIDA-CTN-0002,LB,02_003614,SCREENING,14,CREAT,CREATININE,CHEMISTRY,139.4,mg/dL,,,139.4,139.4,mg/dL," "," ",,,,URINE,CENTRAL LAB,Y,"BASELINE, ANY DAY PRIOR TO FIRST DOSE",0,2002,1
NIDA-CTN-0002,LB,02_003614,ACTIVE,21,CREAT,CREATININE,CHEMISTRY,69.2,mg/dL,,,69.2,69.2,mg/dL," "," ",,,,URINE,CENTRAL LAB,,STUDY DAY 3,3,2002,3
NIDA-CTN-0002,LB,02_003614,ACTIVE,28,CREAT,CREATININE,CHEMISTRY,111.9,mg/dL,,,111.9,111.9,mg/dL," "," ",,,,URINE,CENTRAL LAB,,STUDY DAY 8,8,2002,8
NIDA-CTN-0002,LB,02_003614,ACTIVE,35,CREAT,CREATININE,CHEMISTRY,74.1,mg/dL,,,74.1,74.1,mg/dL," "," ",,,,URINE,CENTRAL LAB,,STUDY DAY 11,11,2002,11
NIDA-CTN-0002,LB,02_003614,ACTIVE,52,CREAT,CREATININE,CHEMISTRY,54.3,mg/dL,,,54.3,54.3,mg/dL," "," ",,,,URINE,CENTRAL LAB,,STUDY DAY 14,14,2002,14
NIDA-CTN-0002,LB,02_003614,FOLLOW-UP 1,59,CREAT,CREATININE,CHEMISTRY,147.8,mg/dL,,,147.8,147.8,mg/dL," "," ",,,,URINE,CENTRAL LAB,,FOLLOW-UP 1,15,2002,30
NIDA-CTN-0002,LB,02_003614,SCREENING,5,METH,METHAMPHETAMINE,DRUG SCREEN,NEGATIVE,,,,NEGATIVE," ",," "," ",,,,URINE,ACCUTEST,Y,"BASELINE, ANY DAY PRIOR TO FIRST DOSE",0,2002,1
NIDA-CTN-0002,LB,02_003614,ACTIVE,43,METH,METHAMPHETAMINE,DRUG SCREEN,NEGATIVE,,,,NEGATIVE," ",," "," ",,,,URINE,ACCUTEST,,STUDY DAY 14,14,2002,14
NIDA-CTN-0002,LB,02_003614,SCREENING,6,METHADON,METHADONE,DRUG SCREEN,NEGATIVE,,,,NEGATIVE," ",," "," ",,,,URINE,ACCUTEST,Y,"BASELINE, ANY DAY PRIOR TO FIRST DOSE",0,2002,1
NIDA-CTN-0002,LB,02_003614,SCREENING,15,METHADON,METHADONE,DRUG SCREEN,NEGATIVE,,,,NEGATIVE," ",," "," ",,,,URINE,CENTRAL LAB,Y,"BASELINE, ANY DAY PRIOR TO FIRST DOSE",0,2002,1
NIDA-CTN-0002,LB,02_003614,ACTIVE,22,METHADON,METHADONE,DRUG SCREEN,NEGATIVE,,,,NEGATIVE," ",," "," ",,,,URINE,CENTRAL LAB,,STUDY DAY 3,3,2002,3
NIDA-CTN-0002,LB,02_003614,ACTIVE,29,METHADON,METHADONE,DRUG SCREEN,NEGATIVE,,,,NEGATIVE," ",," "," ",,,,URINE,CENTRAL LAB,,STUDY DAY 8,8,2002,8
NIDA-CTN-0002,LB,02_003614,ACTIVE,36,METHADON,METHADONE,DRUG SCREEN,NEGATIVE,,,,NEGATIVE," ",," "," ",,,,URINE,CENTRAL LAB,,STUDY DAY 11,11,2002,11
NIDA-CTN-0002,LB,02_003614,ACTIVE,44,METHADON,METHADONE,DRUG SCREEN,NEGATIVE,,,,NEGATIVE," ",," "," ",,,,URINE,ACCUTEST,,STUDY DAY 14,14,2002,14
NIDA-CTN-0002,LB,02_003614,ACTIVE,53,METHADON,METHADONE,DRUG SCREEN,NEGATIVE,,,,NEGATIVE," ",," "," ",,,,URINE,CENTRAL LAB,,STUDY DAY 14,14,2002,14
NIDA-CTN-0002,LB,02_003614,FOLLOW-UP 1,60,METHADON,METHADONE,DRUG SCREEN,NEGATIVE,,,,NEGATIVE," ",," "," ",,,,URINE,CENTRAL LAB,,FOLLOW-UP 1,15,2002,30
NIDA-CTN-0002,LB,02_003614,SCREENING,7,MORPHINE,MORPHINE,DRUG SCREEN,POSITIVE,,,,POSITIVE," ",," "," ",,,,URINE,ACCUTEST,Y,"BASELINE, ANY DAY PRIOR TO FIRST DOSE",0,2002,1
NIDA-CTN-0002,LB,02_003614,ACTIVE,45,MORPHINE,MORPHINE,DRUG SCREEN,POSITIVE,,,,POSITIVE," ",," "," ",,,,URINE,ACCUTEST,,STUDY DAY 14,14,2002,14
NIDA-CTN-0002,LB,02_003614,FOLLOW-UP 2,63,NONE,NONE,DRUG SCREEN,,,,,," ",," "," ",,NOT DONE,PATIENT DID NOT ATTEND,URINE,CENTRAL LAB,,FOLLOW-UP 2,16,2002,120
NIDA-CTN-0002,LB,02_003614,FOLLOW-UP 3,64,NONE,NONE,DRUG SCREEN,,,,,," ",," "," ",,NOT DONE,PATIENT DID NOT ATTEND,URINE,CENTRAL LAB,,FOLLOW-UP 3,17,2002,210
NIDA-CTN-0002,LB,02_003614,SCREENING,16,OPIATE,OPIATE,DRUG SCREEN,NEGATIVE,,,,NEGATIVE," ",," "," ",,,,URINE,CENTRAL LAB,Y,"BASELINE, ANY DAY PRIOR TO FIRST DOSE",0,2002,1
NIDA-CTN-0002,LB,02_003614,ACTIVE,23,OPIATE,OPIATE,DRUG SCREEN,NEGATIVE,,,,NEGATIVE," ",," "," ",,,,URINE,CENTRAL LAB,,STUDY DAY 3,3,2002,3
NIDA-CTN-0002,LB,02_003614,ACTIVE,30,OPIATE,OPIATE,DRUG SCREEN,NEGATIVE,,,,NEGATIVE," ",," "," ",,,,URINE,CENTRAL LAB,,STUDY DAY 8,8,2002,8
NIDA-CTN-0002,LB,02_003614,ACTIVE,37,OPIATE,OPIATE,DRUG SCREEN,NEGATIVE,,,,NEGATIVE," ",," "," ",,,,URINE,CENTRAL LAB,,STUDY DAY 11,11,2002,11
NIDA-CTN-0002,LB,02_003614,ACTIVE,54,OPIATE,OPIATE,DRUG SCREEN,NEGATIVE,,,,NEGATIVE," ",," "," ",,,,URINE,CENTRAL LAB,,STUDY DAY 14,14,2002,14
NIDA-CTN-0002,LB,02_003614,FOLLOW-UP 1,61,OPIATE,OPIATE,DRUG SCREEN,NEGATIVE,,,,NEGATIVE," ",," "," ",,,,URINE,CENTRAL LAB,,FOLLOW-UP 1,15,2002,30
NIDA-CTN-0002,LB,02_003614,SCREENING,8,PCP,PCP,DRUG SCREEN,NEGATIVE,,,,NEGATIVE," ",," "," ",,,,URINE,ACCUTEST,Y,"BASELINE, ANY DAY PRIOR TO FIRST DOSE",0,2002,1
NIDA-CTN-0002,LB,02_003614,ACTIVE,46,PCP,PCP,DRUG SCREEN,NEGATIVE,,,,NEGATIVE," ",," "," ",,,,URINE,ACCUTEST,,STUDY DAY 14,14,2002,14
NIDA-CTN-0002,LB,02_003614,SCREENING,9,TCA,TCA,DRUG SCREEN,NEGATIVE,,,,NEGATIVE," ",," "," ",,,,URINE,ACCUTEST,Y,"BASELINE, ANY DAY PRIOR TO FIRST DOSE",0,2002,1
NIDA-CTN-0002,LB,02_003614,ACTIVE,47,TCA,TCA,DRUG SCREEN,NEGATIVE,,,,NEGATIVE," ",," "," ",,,,URINE,ACCUTEST,,STUDY DAY 14,14,2002,14
NIDA-CTN-0002,LB,02_003614,SCREENING,10,THC,THC,DRUG SCREEN,NEGATIVE,,,,NEGATIVE," ",," "," ",,,,URINE,ACCUTEST,Y,"BASELINE, ANY DAY PRIOR TO FIRST DOSE",0,2002,1
NIDA-CTN-0002,LB,02_003614,SCREENING,17,THC,THC,DRUG SCREEN,NEGATIVE,,,,NEGATIVE," ",," "," ",,,,URINE,CENTRAL LAB,Y,"BASELINE, ANY DAY PRIOR TO FIRST DOSE",0,2002,1
NIDA-CTN-0002,LB,02_003614,ACTIVE,24,THC,THC,DRUG SCREEN,NEGATIVE,,,,NEGATIVE," ",," "," ",,,,URINE,CENTRAL LAB,,STUDY DAY 3,3,2002,3
NIDA-CTN-0002,LB,02_003614,ACTIVE,31,THC,THC,DRUG SCREEN,NEGATIVE,,,,NEGATIVE," ",," "," ",,,,URINE,CENTRAL LAB,,STUDY DAY 8,8,2002,8
NIDA-CTN-0002,LB,02_003614,ACTIVE,38,THC,THC,DRUG SCREEN,NEGATIVE,,,,NEGATIVE," ",," "," ",,,,URINE,CENTRAL LAB,,STUDY DAY 11,11,2002,11
NIDA-CTN-0002,LB,02_003614,ACTIVE,48,THC,THC,DRUG SCREEN,NEGATIVE,,,,NEGATIVE," ",," "," ",,,,URINE,ACCUTEST,,STUDY DAY 14,14,2002,14
NIDA-CTN-0002,LB,02_003614,ACTIVE,55,THC,THC,DRUG SCREEN,NEGATIVE,,,,NEGATIVE," ",," "," ",,,,URINE,CENTRAL LAB,,STUDY DAY 14,14,2002,14
NIDA-CTN-0002,LB,02_003614,FOLLOW-UP 1,62,THC,THC,DRUG SCREEN,NEGATIVE,,,,NEGATIVE," ",," "," ",,,,URINE,CENTRAL LAB,,FOLLOW-UP 1,15,2002,30
NIDA-CTN-0002,LB,02_004194,SCREENING,6,AMPHET,AMPHETAMINES,DRUG SCREEN,NEGATIVE,,,,NEGATIVE," ",," "," ",,,,URINE,ACCUTEST,Y,"BASELINE, ANY DAY PRIOR TO FIRST DOSE",0,2001,1
NIDA-CTN-0002,LB,02_004194,SCREENING,16,AMPHET,AMPHETAMINES,DRUG SCREEN,NEGATIVE,,,,NEGATIVE," ",," "," ",,,,URINE,CENTRAL LAB,Y,"BASELINE, ANY DAY PRIOR TO FIRST DOSE",0,2001,1
NIDA-CTN-0002,LB,02_004194,SCREENING,7,BARBIT,BARBITURATES,DRUG SCREEN,NEGATIVE,,,,NEGATIVE," ",," "," ",,,,URINE,ACCUTEST,Y,"BASELINE, ANY DAY PRIOR TO FIRST DOSE",0,2001,1
NIDA-CTN-0002,LB,02_004194,SCREENING,8,BENZOD,BENZODIAZEPINES,DRUG SCREEN,NEGATIVE,,,,NEGATIVE," ",," "," ",,,,URINE,ACCUTEST,Y,"BASELINE, ANY DAY PRIOR TO FIRST DOSE",0,2001,1
NIDA-CTN-0002,LB,02_004194,SCREENING,17,BENZOD,BENZODIAZEPINES,DRUG SCREEN,NEGATIVE,,,,NEGATIVE," ",," "," ",,,,URINE,CENTRAL LAB,Y,"BASELINE, ANY DAY PRIOR TO FIRST DOSE",0,2001,1
NIDA-CTN-0002,LB,02_004194,SCREENING,9,COCAINE,COCAINE,DRUG SCREEN,POSITIVE,,,,POSITIVE," ",," "," ",,,,URINE,ACCUTEST,Y,"BASELINE, ANY DAY PRIOR TO FIRST DOSE",0,2001,1
NIDA-CTN-0002,LB,02_004194,SCREENING,18,COCAINE,COCAINE,DRUG SCREEN,POSITIVE,,,,POSITIVE," ",," "," ",,,,URINE,CENTRAL LAB,Y,"BASELINE, ANY DAY PRIOR TO FIRST DOSE",0,2001,1
NIDA-CTN-0002,LB,02_004194,SCREENING,19,CREAT,CREATININE,CHEMISTRY,224.5,mg/dL,,,224.5,224.5,mg/dL," "," ",,,,URINE,CENTRAL LAB,Y,"BASELINE, ANY DAY PRIOR TO FIRST DOSE",0,2001,1
NIDA-CTN-0002,LB,02_004194,SCREENING,10,METH,METHAMPHETAMINE,DRUG SCREEN,NEGATIVE,,,,NEGATIVE," ",," "," ",,,,URINE,ACCUTEST,Y,"BASELINE, ANY DAY PRIOR TO FIRST DOSE",0,2001,1
NIDA-CTN-0002,LB,02_004194,SCREENING,11,METHADON,METHADONE,DRUG SCREEN,NEGATIVE,,,,NEGATIVE," ",," "," ",,,,URINE,ACCUTEST,Y,"BASELINE, ANY DAY PRIOR TO FIRST DOSE",0,2001,1
NIDA-CTN-0002,LB,02_004194,SCREENING,20,METHADON,METHADONE,DRUG SCREEN,NEGATIVE,,,,NEGATIVE," ",," "," ",,,,URINE,CENTRAL LAB,Y,"BASELINE, ANY DAY PRIOR TO FIRST DOSE",0,2001,1
NIDA-CTN-0002,LB,02_004194,SCREENING,12,MORPHINE,MORPHINE,DRUG SCREEN,POSITIVE,,,,POSITIVE," ",," "," ",,,,URINE,ACCUTEST,Y,"BASELINE, ANY DAY PRIOR TO FIRST DOSE",0,2001,1
NIDA-CTN-0002,LB,02_004194,ACTIVE,1,NONE,NONE,DRUG SCREEN,,,,,," ",," "," ",,NOT DONE,PATIENT DID NOT ATTEND,URINE,ACCUTEST,,UNKNOWN,-99,," "
NIDA-CTN-0002,LB,02_004194,ACTIVE,2,NONE,NONE,DRUG SCREEN,,,,,," ",," "," ",,NOT DONE,PATIENT DID NOT ATTEND,URINE,CENTRAL LAB,,UNKNOWN,-99,," "
NIDA-CTN-0002,LB,02_004194,ACTIVE,3,NONE,NONE,DRUG SCREEN,,,,,," ",," "," ",,NOT DONE,PATIENT DID NOT ATTEND,URINE,CENTRAL LAB,,UNKNOWN,-99,," "
NIDA-CTN-0002,LB,02_004194,ACTIVE,4,NONE,NONE,DRUG SCREEN,,,,,," ",," "," ",,NOT DONE,PATIENT DID NOT ATTEND,URINE,CENTRAL LAB,,UNKNOWN,-99,," "
NIDA-CTN-0002,LB,02_004194,ACTIVE,5,NONE,NONE,DRUG SCREEN,,,,,," ",," "," ",,NOT DONE,PATIENT DID NOT ATTEND,URINE,CENTRAL LAB,,UNKNOWN,-99,," "
NIDA-CTN-0002,LB,02_004194,SCREENING,21,OPIATE,OPIATE,DRUG SCREEN,POSITIVE,,,,POSITIVE," ",," "," ",,,,URINE,CENTRAL LAB,Y,"BASELINE, ANY DAY PRIOR TO FIRST DOSE",0,2001,1
NIDA-CTN-0002,LB,02_004194,SCREENING,13,PCP,PCP,DRUG SCREEN,NEGATIVE,,,,NEGATIVE," ",," "," ",,,,URINE,ACCUTEST,Y,"BASELINE, ANY DAY PRIOR TO FIRST DOSE",0,2001,1
NIDA-CTN-0002,LB,02_004194,SCREENING,14,TCA,TCA,DRUG SCREEN,NEGATIVE,,,,NEGATIVE," ",," "," ",,,,URINE,ACCUTEST,Y,"BASELINE, ANY DAY PRIOR TO FIRST DOSE",0,2001,1
NIDA-CTN-0002,LB,02_004194,SCREENING,15,THC,THC,DRUG SCREEN,NEGATIVE,,,,NEGATIVE," ",," "," ",,,,URINE,ACCUTEST,Y,"BASELINE, ANY DAY PRIOR TO FIRST DOSE",0,2001,1
NIDA-CTN-0002,LB,02_004194,SCREENING,22,THC,THC,DRUG SCREEN,POSITIVE,,,,POSITIVE," ",," "," ",,,,URINE,CENTRAL LAB,Y,"BASELINE, ANY DAY PRIOR TO FIRST DOSE",0,2001,1
NIDA-CTN-0002,LB,02_004450,SCREENING,1,AMPHET,AMPHETAMINES,DRUG SCREEN,NEGATIVE,,,,NEGATIVE," ",," "," ",,,,URINE,ACCUTEST,Y,"BASELINE, ANY DAY PRIOR TO FIRST DOSE",0,2001,1
NIDA-CTN-0002,LB,02_004450,SCREENING,11,AMPHET,AMPHETAMINES,DRUG SCREEN,NEGATIVE,,,,NEGATIVE," ",," "," ",,,,URINE,CENTRAL LAB,Y,"BASELINE, ANY DAY PRIOR TO FIRST DOSE",0,2001,1
NIDA-CTN-0002,LB,02_004450,ACTIVE,18,AMPHET,AMPHETAMINES,DRUG SCREEN,NEGATIVE,,,,NEGATIVE," ",," "," ",,,,URINE,CENTRAL LAB,,STUDY DAY 3,3,2001,3
NIDA-CTN-0002,LB,02_004450,ACTIVE,25,AMPHET,AMPHETAMINES,DRUG SCREEN,NEGATIVE,,,,NEGATIVE," ",," "," ",,,,URINE,CENTRAL LAB,,STUDY DAY 7,7,2001,7
NIDA-CTN-0002,LB,02_004450,ACTIVE,32,AMPHET,AMPHETAMINES,DRUG SCREEN,NEGATIVE,,,,NEGATIVE," ",," "," ",,,,URINE,CENTRAL LAB,,STUDY DAY 10,10,2001,10
NIDA-CTN-0002,LB,02_004450,ACTIVE,39,AMPHET,AMPHETAMINES,DRUG SCREEN,NEGATIVE,,,,NEGATIVE," ",," "," ",,,,URINE,ACCUTEST,,STUDY DAY 14,14,2001,14
NIDA-CTN-0002,LB,02_004450,ACTIVE,49,AMPHET,AMPHETAMINES,DRUG SCREEN,NEGATIVE,,,,NEGATIVE," ",," "," ",,,,URINE,CENTRAL LAB,,STUDY DAY 14,14,2001,14
NIDA-CTN-0002,LB,02_004450,FOLLOW-UP 1,56,AMPHET,AMPHETAMINES,DRUG SCREEN,NEGATIVE,,,,NEGATIVE," ",," "," ",,,,URINE,CENTRAL LAB,,FOLLOW-UP 1,15,2001,32
NIDA-CTN-0002,LB,02_004450,FOLLOW-UP 2,63,AMPHET,AMPHETAMINES,DRUG SCREEN,NEGATIVE,,,,NEGATIVE," ",," "," ",,,,URINE,CENTRAL LAB,,FOLLOW-UP 2,16,2001,101
NIDA-CTN-0002,LB,02_004450,FOLLOW-UP 3,70,AMPHET,AMPHETAMINES,DRUG SCREEN,NEGATIVE,,,,NEGATIVE," ",," "," ",,,,URINE,CENTRAL LAB,,FOLLOW-UP 3,17,2002,189
NIDA-CTN-0002,LB,02_004450,SCREENING,2,BARBIT,BARBITURATES,DRUG SCREEN,NEGATIVE,,,,NEGATIVE," ",," "," ",,,,URINE,ACCUTEST,Y,"BASELINE, ANY DAY PRIOR TO FIRST DOSE",0,2001,1
NIDA-CTN-0002,LB,02_004450,ACTIVE,40,BARBIT,BARBITURATES,DRUG SCREEN,NEGATIVE,,,,NEGATIVE," ",," "," ",,,,URINE,ACCUTEST,,STUDY DAY 14,14,2001,14
NIDA-CTN-0002,LB,02_004450,SCREENING,3,BENZOD,BENZODIAZEPINES,DRUG SCREEN,NEGATIVE,,,,NEGATIVE," ",," "," ",,,,URINE,ACCUTEST,Y,"BASELINE, ANY DAY PRIOR TO FIRST DOSE",0,2001,1
NIDA-CTN-0002,LB,02_004450,SCREENING,12,BENZOD,BENZODIAZEPINES,DRUG SCREEN,NEGATIVE,,,,NEGATIVE," ",," "," ",,,,URINE,CENTRAL LAB,Y,"BASELINE, ANY DAY PRIOR TO FIRST DOSE",0,2001,1
NIDA-CTN-0002,LB,02_004450,ACTIVE,19,BENZOD,BENZODIAZEPINES,DRUG SCREEN,NEGATIVE,,,,NEGATIVE," ",," "," ",,,,URINE,CENTRAL LAB,,STUDY DAY 3,3,2001,3
NIDA-CTN-0002,LB,02_004450,ACTIVE,26,BENZOD,BENZODIAZEPINES,DRUG SCREEN,NEGATIVE,,,,NEGATIVE," ",," "," ",,,,URINE,CENTRAL LAB,,STUDY DAY 7,7,2001,7
NIDA-CTN-0002,LB,02_004450,ACTIVE,33,BENZOD,BENZODIAZEPINES,DRUG SCREEN,NEGATIVE,,,,NEGATIVE," ",," "," ",,,,URINE,CENTRAL LAB,,STUDY DAY 10,10,2001,10
NIDA-CTN-0002,LB,02_004450,ACTIVE,41,BENZOD,BENZODIAZEPINES,DRUG SCREEN,NEGATIVE,,,,NEGATIVE," ",," "," ",,,,URINE,ACCUTEST,,STUDY DAY 14,14,2001,14
NIDA-CTN-0002,LB,02_004450,ACTIVE,50,BENZOD,BENZODIAZEPINES,DRUG SCREEN,NEGATIVE,,,,NEGATIVE," ",," "," ",,,,URINE,CENTRAL LAB,,STUDY DAY 14,14,2001,14
NIDA-CTN-0002,LB,02_004450,FOLLOW-UP 1,57,BENZOD,BENZODIAZEPINES,DRUG SCREEN,NEGATIVE,,,,NEGATIVE," ",," "," ",,,,URINE,CENTRAL LAB,,FOLLOW-UP 1,15,2001,32
NIDA-CTN-0002,LB,02_004450,FOLLOW-UP 2,64,BENZOD,BENZODIAZEPINES,DRUG SCREEN,NEGATIVE,,,,NEGATIVE," ",," "," ",,,,URINE,CENTRAL LAB,,FOLLOW-UP 2,16,2001,101
NIDA-CTN-0002,LB,02_004450,FOLLOW-UP 3,71,BENZOD,BENZODIAZEPINES,DRUG SCREEN,NEGATIVE,,,,NEGATIVE," ",," "," ",,,,URINE,CENTRAL LAB,,FOLLOW-UP 3,17,2002,189
NIDA-CTN-0002,LB,02_004450,SCREENING,4,COCAINE,COCAINE,DRUG SCREEN,POSITIVE,,,,POSITIVE," ",," "," ",,,,URINE,ACCUTEST,Y,"BASELINE, ANY DAY PRIOR TO FIRST DOSE",0,2001,1
NIDA-CTN-0002,LB,02_004450,SCREENING,13,COCAINE,COCAINE,DRUG SCREEN,POSITIVE,,,,POSITIVE," ",," "," ",,,,URINE,CENTRAL LAB,Y,"BASELINE, ANY DAY PRIOR TO FIRST DOSE",0,2001,1
NIDA-CTN-0002,LB,02_004450,ACTIVE,20,COCAINE,COCAINE,DRUG SCREEN,POSITIVE,,,,POSITIVE," ",," "," ",,,,URINE,CENTRAL LAB,,STUDY DAY 3,3,2001,3
NIDA-CTN-0002,LB,02_004450,ACTIVE,27,COCAINE,COCAINE,DRUG SCREEN,POSITIVE,,,,POSITIVE," ",," "," ",,,,URINE,CENTRAL LAB,,STUDY DAY 7,7,2001,7
NIDA-CTN-0002,LB,02_004450,ACTIVE,34,COCAINE,COCAINE,DRUG SCREEN,POSITIVE,,,,POSITIVE," ",," "," ",,,,URINE,CENTRAL LAB,,STUDY DAY 10,10,2001,10
NIDA-CTN-0002,LB,02_004450,ACTIVE,42,COCAINE,COCAINE,DRUG SCREEN,POSITIVE,,,,POSITIVE," ",," "," ",,,,URINE,ACCUTEST,,STUDY DAY 14,14,2001,14
NIDA-CTN-0002,LB,02_004450,ACTIVE,51,COCAINE,COCAINE,DRUG SCREEN,POSITIVE,,,,POSITIVE," ",," "," ",,,,URINE,CENTRAL LAB,,STUDY DAY 14,14,2001,14
NIDA-CTN-0002,LB,02_004450,FOLLOW-UP 1,58,COCAINE,COCAINE,DRUG SCREEN,NEGATIVE,,,,NEGATIVE," ",," "," ",,,,URINE,CENTRAL LAB,,FOLLOW-UP 1,15,2001,32
NIDA-CTN-0002,LB,02_004450,FOLLOW-UP 2,65,COCAINE,COCAINE,DRUG SCREEN,NEGATIVE,,,,NEGATIVE," ",," "," ",,,,URINE,CENTRAL LAB,,FOLLOW-UP 2,16,2001,101
NIDA-CTN-0002,LB,02_004450,FOLLOW-UP 3,72,COCAINE,COCAINE,DRUG SCREEN,POSITIVE,,,,POSITIVE," ",," "," ",,,,URINE,CENTRAL LAB,,FOLLOW-UP 3,17,2002,189
NIDA-CTN-0002,LB,02_004450,SCREENING,14,CREAT,CREATININE,CHEMISTRY,253.5,mg/dL,,,253.5,253.5,mg/dL," "," ",,,,URINE,CENTRAL LAB,Y,"BASELINE, ANY DAY PRIOR TO FIRST DOSE",0,2001,1
NIDA-CTN-0002,LB,02_004450,ACTIVE,21,CREAT,CREATININE,CHEMISTRY,314.6,mg/dL,,,314.6,314.6,mg/dL," "," ",,,,URINE,CENTRAL LAB,,STUDY DAY 3,3,2001,3
NIDA-CTN-0002,LB,02_004450,ACTIVE,28,CREAT,CREATININE,CHEMISTRY,222.0,mg/dL,,,222.0,222,mg/dL," "," ",,,,URINE,CENTRAL LAB,,STUDY DAY 7,7,2001,7
NIDA-CTN-0002,LB,02_004450,ACTIVE,35,CREAT,CREATININE,CHEMISTRY,148.2,mg/dL,,,148.2,148.2,mg/dL," "," ",,,,URINE,CENTRAL LAB,,STUDY DAY 10,10,2001,10
NIDA-CTN-0002,LB,02_004450,ACTIVE,52,CREAT,CREATININE,CHEMISTRY,238.6,mg/dL,,,238.6,238.6,mg/dL," "," ",,,,URINE,CENTRAL LAB,,STUDY DAY 14,14,2001,14
NIDA-CTN-0002,LB,02_004450,FOLLOW-UP 1,59,CREAT,CREATININE,CHEMISTRY,152.6,mg/dL,,,152.6,152.6,mg/dL," "," ",,,,URINE,CENTRAL LAB,,FOLLOW-UP 1,15,2001,32
NIDA-CTN-0002,LB,02_004450,FOLLOW-UP 2,66,CREAT,CREATININE,CHEMISTRY,272.6,mg/dL,,,272.6,272.6,mg/dL," "," ",,,,URINE,CENTRAL LAB,,FOLLOW-UP 2,16,2001,101
NIDA-CTN-0002,LB,02_004450,FOLLOW-UP 3,73,CREAT,CREATININE,CHEMISTRY,209.1,mg/dL,,,209.1,209.1,mg/dL," "," ",,,,URINE,CENTRAL LAB,,FOLLOW-UP 3,17,2002,189
NIDA-CTN-0002,LB,02_004450,SCREENING,5,METH,METHAMPHETAMINE,DRUG SCREEN,NEGATIVE,,,,NEGATIVE," ",," "," ",,,,URINE,ACCUTEST,Y,"BASELINE, ANY DAY PRIOR TO FIRST DOSE",0,2001,1
NIDA-CTN-0002,LB,02_004450,ACTIVE,43,METH,METHAMPHETAMINE,DRUG SCREEN,NEGATIVE,,,,NEGATIVE," ",," "," ",,,,URINE,ACCUTEST,,STUDY DAY 14,14,2001,14
NIDA-CTN-0002,LB,02_004450,SCREENING,6,METHADON,METHADONE,DRUG SCREEN,NEGATIVE,,,,NEGATIVE," ",," "," ",,,,URINE,ACCUTEST,Y,"BASELINE, ANY DAY PRIOR TO FIRST DOSE",0,2001,1
NIDA-CTN-0002,LB,02_004450,SCREENING,15,METHADON,METHADONE,DRUG SCREEN,NEGATIVE,,,,NEGATIVE," ",," "," ",,,,URINE,CENTRAL LAB,Y,"BASELINE, ANY DAY PRIOR TO FIRST DOSE",0,2001,1
NIDA-CTN-0002,LB,02_004450,ACTIVE,22,METHADON,METHADONE,DRUG SCREEN,NEGATIVE,,,,NEGATIVE," ",," "," ",,,,URINE,CENTRAL LAB,,STUDY DAY 3,3,2001,3
NIDA-CTN-0002,LB,02_004450,ACTIVE,29,METHADON,METHADONE,DRUG SCREEN,NEGATIVE,,,,NEGATIVE," ",," "," ",,,,URINE,CENTRAL LAB,,STUDY DAY 7,7,2001,7
NIDA-CTN-0002,LB,02_004450,ACTIVE,36,METHADON,METHADONE,DRUG SCREEN,NEGATIVE,,,,NEGATIVE," ",," "," ",,,,URINE,CENTRAL LAB,,STUDY DAY 10,10,2001,10
NIDA-CTN-0002,LB,02_004450,ACTIVE,44,METHADON,METHADONE,DRUG SCREEN,NEGATIVE,,,,NEGATIVE," ",," "," ",,,,URINE,ACCUTEST,,STUDY DAY 14,14,2001,14
NIDA-CTN-0002,LB,02_004450,ACTIVE,53,METHADON,METHADONE,DRUG SCREEN,NEGATIVE,,,,NEGATIVE," ",," "," ",,,,URINE,CENTRAL LAB,,STUDY DAY 14,14,2001,14
NIDA-CTN-0002,LB,02_004450,FOLLOW-UP 1,60,METHADON,METHADONE,DRUG SCREEN,NEGATIVE,,,,NEGATIVE," ",," "," ",,,,URINE,CENTRAL LAB,,FOLLOW-UP 1,15,2001,32
NIDA-CTN-0002,LB,02_004450,FOLLOW-UP 2,67,METHADON,METHADONE,DRUG SCREEN,NEGATIVE,,,,NEGATIVE," ",," "," ",,,,URINE,CENTRAL LAB,,FOLLOW-UP 2,16,2001,101
NIDA-CTN-0002,LB,02_004450,FOLLOW-UP 3,74,METHADON,METHADONE,DRUG SCREEN,NEGATIVE,,,,NEGATIVE," ",," "," ",,,,URINE,CENTRAL LAB,,FOLLOW-UP 3,17,2002,189
NIDA-CTN-0002,LB,02_004450,SCREENING,7,MORPHINE,MORPHINE,DRUG SCREEN,POSITIVE,,,,POSITIVE," ",," "," ",,,,URINE,ACCUTEST,Y,"BASELINE, ANY DAY PRIOR TO FIRST DOSE",0,2001,1
NIDA-CTN-0002,LB,02_004450,ACTIVE,45,MORPHINE,MORPHINE,DRUG SCREEN,POSITIVE,,,,POSITIVE," ",," "," ",,,,URINE,ACCUTEST,,STUDY DAY 14,14,2001,14
NIDA-CTN-0002,LB,02_004450,SCREENING,16,OPIATE,OPIATE,DRUG SCREEN,POSITIVE,,,,POSITIVE," ",," "," ",,,,URINE,CENTRAL LAB,Y,"BASELINE, ANY DAY PRIOR TO FIRST DOSE",0,2001,1
NIDA-CTN-0002,LB,02_004450,ACTIVE,23,OPIATE,OPIATE,DRUG SCREEN,POSITIVE,,,,POSITIVE," ",," "," ",,,,URINE,CENTRAL LAB,,STUDY DAY 3,3,2001,3
NIDA-CTN-0002,LB,02_004450,ACTIVE,30,OPIATE,OPIATE,DRUG SCREEN,POSITIVE,,,,POSITIVE," ",," "," ",,,,URINE,CENTRAL LAB,,STUDY DAY 7,7,2001,7
NIDA-CTN-0002,LB,02_004450,ACTIVE,37,OPIATE,OPIATE,DRUG SCREEN,POSITIVE,,,,POSITIVE," ",," "," ",,,,URINE,CENTRAL LAB,,STUDY DAY 10,10,2001,10
NIDA-CTN-0002,LB,02_004450,ACTIVE,54,OPIATE,OPIATE,DRUG SCREEN,POSITIVE,,,,POSITIVE," ",," "," ",,,,URINE,CENTRAL LAB,,STUDY DAY 14,14,2001,14
NIDA-CTN-0002,LB,02_004450,FOLLOW-UP 1,61,OPIATE,OPIATE,DRUG SCREEN,POSITIVE,,,,POSITIVE," ",," "," ",,,,URINE,CENTRAL LAB,,FOLLOW-UP 1,15,2001,32
NIDA-CTN-0002,LB,02_004450,FOLLOW-UP 2,68,OPIATE,OPIATE,DRUG SCREEN,POSITIVE,,,,POSITIVE," ",," "," ",,,,URINE,CENTRAL LAB,,FOLLOW-UP 2,16,2001,101
NIDA-CTN-0002,LB,02_004450,FOLLOW-UP 3,75,OPIATE,OPIATE,DRUG SCREEN,POSITIVE,,,,POSITIVE," ",," "," ",,,,URINE,CENTRAL LAB,,FOLLOW-UP 3,17,2002,189
NIDA-CTN-0002,LB,02_004450,SCREENING,8,PCP,PCP,DRUG SCREEN,POSITIVE,,,,POSITIVE," ",," "," ",,,,URINE,ACCUTEST,Y,"BASELINE, ANY DAY PRIOR TO FIRST DOSE",0,2001,1
NIDA-CTN-0002,LB,02_004450,ACTIVE,46,PCP,PCP,DRUG SCREEN,POSITIVE,,,,POSITIVE," ",," "," ",,,,URINE,ACCUTEST,,STUDY DAY 14,14,2001,14
NIDA-CTN-0002,LB,02_004450,SCREENING,9,TCA,TCA,DRUG SCREEN,NEGATIVE,,,,NEGATIVE," ",," "," ",,,,URINE,ACCUTEST,Y,"BASELINE, ANY DAY PRIOR TO FIRST DOSE",0,2001,1
NIDA-CTN-0002,LB,02_004450,ACTIVE,47,TCA,TCA,DRUG SCREEN,NEGATIVE,,,,NEGATIVE," ",," "," ",,,,URINE,ACCUTEST,,STUDY DAY 14,14,2001,14
NIDA-CTN-0002,LB,02_004450,SCREENING,10,THC,THC,DRUG SCREEN,NEGATIVE,,,,NEGATIVE," ",," "," ",,,,URINE,ACCUTEST,Y,"BASELINE, ANY DAY PRIOR TO FIRST DOSE",0,2001,1
NIDA-CTN-0002,LB,02_004450,SCREENING,17,THC,THC,DRUG SCREEN,NEGATIVE,,,,NEGATIVE," ",," "," ",,,,URINE,CENTRAL LAB,Y,"BASELINE, ANY DAY PRIOR TO FIRST DOSE",0,2001,1
NIDA-CTN-0002,LB,02_004450,ACTIVE,24,THC,THC,DRUG SCREEN,NEGATIVE,,,,NEGATIVE," ",," "," ",,,,URINE,CENTRAL LAB,,STUDY DAY 3,3,2001,3
NIDA-CTN-0002,LB,02_004450,ACTIVE,31,THC,THC,DRUG SCREEN,NEGATIVE,,,,NEGATIVE," ",," "," ",,,,URINE,CENTRAL LAB,,STUDY DAY 7,7,2001,7
NIDA-CTN-0002,LB,02_004450,ACTIVE,38,THC,THC,DRUG SCREEN,NEGATIVE,,,,NEGATIVE," ",," "," ",,,,URINE,CENTRAL LAB,,STUDY DAY 10,10,2001,10
NIDA-CTN-0002,LB,02_004450,ACTIVE,48,THC,THC,DRUG SCREEN,NEGATIVE,,,,NEGATIVE," ",," "," ",,,,URINE,ACCUTEST,,STUDY DAY 14,14,2001,14
NIDA-CTN-0002,LB,02_004450,ACTIVE,55,THC,THC,DRUG SCREEN,NEGATIVE,,,,NEGATIVE," ",," "," ",,,,URINE,CENTRAL LAB,,STUDY DAY 14,14,2001,14
NIDA-CTN-0002,LB,02_004450,FOLLOW-UP 1,62,THC,THC,DRUG SCREEN,NEGATIVE,,,,NEGATIVE," ",," "," ",,,,URINE,CENTRAL LAB,,FOLLOW-UP 1,15,2001,32
NIDA-CTN-0002,LB,02_004450,FOLLOW-UP 2,69,THC,THC,DRUG SCREEN,NEGATIVE,,,,NEGATIVE," ",," "," ",,,,URINE,CENTRAL LAB,,FOLLOW-UP 2,16,2001,101
NIDA-CTN-0002,LB,02_004450,FOLLOW-UP 3,76,THC,THC,DRUG SCREEN,NEGATIVE,,,,NEGATIVE," ",," "," ",,,,URINE,CENTRAL LAB,,FOLLOW-UP 3,17,2002,189
NIDA-CTN-0002,LB,02_004483,SCREENING,1,AMPHET,AMPHETAMINES,DRUG SCREEN,NEGATIVE,,,,NEGATIVE," ",," "," ",,,,URINE,ACCUTEST,Y,"BASELINE, ANY DAY PRIOR TO FIRST DOSE",0,2001,1
NIDA-CTN-0002,LB,02_004483,SCREENING,11,AMPHET,AMPHETAMINES,DRUG SCREEN,NEGATIVE,,,,NEGATIVE," ",," "," ",,,,URINE,CENTRAL LAB,Y,"BASELINE, ANY DAY PRIOR TO FIRST DOSE",0,2001,1
NIDA-CTN-0002,LB,02_004483,FOLLOW-UP 1,18,AMPHET,AMPHETAMINES,DRUG SCREEN,NEGATIVE,,,,NEGATIVE," ",," "," ",,,,URINE,CENTRAL LAB,,FOLLOW-UP 1,15,2002,57
NIDA-CTN-0002,LB,02_004483,FOLLOW-UP 3,26,AMPHET,AMPHETAMINES,DRUG SCREEN,NEGATIVE,,,,NEGATIVE," ",," "," ",,,,URINE,CENTRAL LAB,,FOLLOW-UP 3,17,2002,184
NIDA-CTN-0002,LB,02_004483,SCREENING,2,BARBIT,BARBITURATES,DRUG SCREEN,NEGATIVE,,,,NEGATIVE," ",," "," ",,,,URINE,ACCUTEST,Y,"BASELINE, ANY DAY PRIOR TO FIRST DOSE",0,2001,1
NIDA-CTN-0002,LB,02_004483,SCREENING,3,BENZOD,BENZODIAZEPINES,DRUG SCREEN,NEGATIVE,,,,NEGATIVE," ",," "," ",,,,URINE,ACCUTEST,Y,"BASELINE, ANY DAY PRIOR TO FIRST DOSE",0,2001,1
NIDA-CTN-0002,LB,02_004483,SCREENING,12,BENZOD,BENZODIAZEPINES,DRUG SCREEN,NEGATIVE,,,,NEGATIVE," ",," "," ",,,,URINE,CENTRAL LAB,Y,"BASELINE, ANY DAY PRIOR TO FIRST DOSE",0,2001,1
NIDA-CTN-0002,LB,02_004483,FOLLOW-UP 1,19,BENZOD,BENZODIAZEPINES,DRUG SCREEN,NEGATIVE,,,,NEGATIVE," ",," "," ",,,,URINE,CENTRAL LAB,,FOLLOW-UP 1,15,2002,57
NIDA-CTN-0002,LB,02_004483,FOLLOW-UP 3,27,BENZOD,BENZODIAZEPINES,DRUG SCREEN,NEGATIVE,,,,NEGATIVE," ",," "," ",,,,URINE,CENTRAL LAB,,FOLLOW-UP 3,17,2002,184
NIDA-CTN-0002,LB,02_004483,SCREENING,4,COCAINE,COCAINE,DRUG SCREEN,POSITIVE,,,,POSITIVE," ",," "," ",,,,URINE,ACCUTEST,Y,"BASELINE, ANY DAY PRIOR TO FIRST DOSE",0,2001,1
NIDA-CTN-0002,LB,02_004483,SCREENING,13,COCAINE,COCAINE,DRUG SCREEN,POSITIVE,,,,POSITIVE," ",," "," ",,,,URINE,CENTRAL LAB,Y,"BASELINE, ANY DAY PRIOR TO FIRST DOSE",0,2001,1
NIDA-CTN-0002,LB,02_004483,FOLLOW-UP 1,20,COCAINE,COCAINE,DRUG SCREEN,POSITIVE,,,,POSITIVE," ",," "," ",,,,URINE,CENTRAL LAB,,FOLLOW-UP 1,15,2002,57
NIDA-CTN-0002,LB,02_004483,FOLLOW-UP 3,28,COCAINE,COCAINE,DRUG SCREEN,POSITIVE,,,,POSITIVE," ",," "," ",,,,URINE,CENTRAL LAB,,FOLLOW-UP 3,17,2002,184
NIDA-CTN-0002,LB,02_004483,SCREENING,14,CREAT,CREATININE,CHEMISTRY,63.6,mg/dL,,,63.6,63.6,mg/dL," "," ",,,,URINE,CENTRAL LAB,Y,"BASELINE, ANY DAY PRIOR TO FIRST DOSE",0,2001,1
NIDA-CTN-0002,LB,02_004483,FOLLOW-UP 1,21,CREAT,CREATININE,CHEMISTRY,129.2,mg/dL,,,129.2,129.2,mg/dL," "," ",,,,URINE,CENTRAL LAB,,FOLLOW-UP 1,15,2002,57
NIDA-CTN-0002,LB,02_004483,FOLLOW-UP 3,29,CREAT,CREATININE,CHEMISTRY,109.3,mg/dL,,,109.3,109.3,mg/dL," "," ",,,,URINE,CENTRAL LAB,,FOLLOW-UP 3,17,2002,184
NIDA-CTN-0002,LB,02_004483,SCREENING,5,METH,METHAMPHETAMINE,DRUG SCREEN,NEGATIVE,,,,NEGATIVE," ",," "," ",,,,URINE,ACCUTEST,Y,"BASELINE, ANY DAY PRIOR TO FIRST DOSE",0,2001,1
NIDA-CTN-0002,LB,02_004483,SCREENING,6,METHADON,METHADONE,DRUG SCREEN,NEGATIVE,,,,NEGATIVE," ",," "," ",,,,URINE,ACCUTEST,Y,"BASELINE, ANY DAY PRIOR TO FIRST DOSE",0,2001,1
NIDA-CTN-0002,LB,02_004483,SCREENING,15,METHADON,METHADONE,DRUG SCREEN,NEGATIVE,,,,NEGATIVE," ",," "," ",,,,URINE,CENTRAL LAB,Y,"BASELINE, ANY DAY PRIOR TO FIRST DOSE",0,2001,1
NIDA-CTN-0002,LB,02_004483,FOLLOW-UP 1,22,METHADON,METHADONE,DRUG SCREEN,NEGATIVE,,,,NEGATIVE," ",," "," ",,,,URINE,CENTRAL LAB,,FOLLOW-UP 1,15,2002,57
NIDA-CTN-0002,LB,02_004483,FOLLOW-UP 3,30,METHADON,METHADONE,DRUG SCREEN,NEGATIVE,,,,NEGATIVE," ",," "," ",,,,URINE,CENTRAL LAB,,FOLLOW-UP 3,17,2002,184
NIDA-CTN-0002,LB,02_004483,SCREENING,7,MORPHINE,MORPHINE,DRUG SCREEN,POSITIVE,,,,POSITIVE," ",," "," ",,,,URINE,ACCUTEST,Y,"BASELINE, ANY DAY PRIOR TO FIRST DOSE",0,2001,1
NIDA-CTN-0002,LB,02_004483,FOLLOW-UP 2,25,NONE,NONE,DRUG SCREEN,,,,,," ",," "," ",,NOT DONE,PATIENT DID NOT ATTEND,URINE,CENTRAL LAB,,FOLLOW-UP 2,16,," "
NIDA-CTN-0002,LB,02_004483,SCREENING,16,OPIATE,OPIATE,DRUG SCREEN,POSITIVE,,,,POSITIVE," ",," "," ",,,,URINE,CENTRAL LAB,Y,"BASELINE, ANY DAY PRIOR TO FIRST DOSE",0,2001,1
NIDA-CTN-0002,LB,02_004483,FOLLOW-UP 1,23,OPIATE,OPIATE,DRUG SCREEN,POSITIVE,,,,POSITIVE," ",," "," ",,,,URINE,CENTRAL LAB,,FOLLOW-UP 1,15,2002,57
NIDA-CTN-0002,LB,02_004483,FOLLOW-UP 3,31,OPIATE,OPIATE,DRUG SCREEN,POSITIVE,,,,POSITIVE," ",," "," ",,,,URINE,CENTRAL LAB,,FOLLOW-UP 3,17,2002,184
NIDA-CTN-0002,LB,02_004483,SCREENING,8,PCP,PCP,DRUG SCREEN,NEGATIVE,,,,NEGATIVE," ",," "," ",,,,URINE,ACCUTEST,Y,"BASELINE, ANY DAY PRIOR TO FIRST DOSE",0,2001,1
NIDA-CTN-0002,LB,02_004483,SCREENING,9,TCA,TCA,DRUG SCREEN,NEGATIVE,,,,NEGATIVE," ",," "," ",,,,URINE,ACCUTEST,Y,"BASELINE, ANY DAY PRIOR TO FIRST DOSE",0,2001,1
NIDA-CTN-0002,LB,02_004483,SCREENING,10,THC,THC,DRUG SCREEN,NEGATIVE,,,,NEGATIVE," ",," "," ",,,,URINE,ACCUTEST,Y,"BASELINE, ANY DAY PRIOR TO FIRST DOSE",0,2001,1
NIDA-CTN-0002,LB,02_004483,SCREENING,17,THC,THC,DRUG SCREEN,NEGATIVE,,,,NEGATIVE," ",," "," ",,,,URINE,CENTRAL LAB,Y,"BASELINE, ANY DAY PRIOR TO FIRST DOSE",0,2001,1
NIDA-CTN-0002,LB,02_004483,FOLLOW-UP 1,24,THC,THC,DRUG SCREEN,NEGATIVE,,,,NEGATIVE," ",," "," ",,,,URINE,CENTRAL LAB,,FOLLOW-UP 1,15,2002,57
NIDA-CTN-0002,LB,02_004483,FOLLOW-UP 3,32,THC,THC,DRUG SCREEN,NEGATIVE,,,,NEGATIVE," ",," "," ",,,,URINE,CENTRAL LAB,,FOLLOW-UP 3,17,2002,184
NIDA-CTN-0002,LB,02_005069,SCREENING,2,AMPHET,AMPHETAMINES,DRUG SCREEN,NEGATIVE,,,,NEGATIVE," ",," "," ",,,,URINE,ACCUTEST,Y,"BASELINE, ANY DAY PRIOR TO FIRST DOSE",0,2001,-1
NIDA-CTN-0002,LB,02_005069,SCREENING,12,AMPHET,AMPHETAMINES,DRUG SCREEN,NEGATIVE,,,,NEGATIVE," ",," "," ",,,,URINE,CENTRAL LAB,Y,"BASELINE, ANY DAY PRIOR TO FIRST DOSE",0,2001,-1
NIDA-CTN-0002,LB,02_005069,ACTIVE,19,AMPHET,AMPHETAMINES,DRUG SCREEN,NEGATIVE,,,,NEGATIVE," ",," "," ",,,,URINE,CENTRAL LAB,,STUDY DAY 3,3,2001,3
NIDA-CTN-0002,LB,02_005069,ACTIVE,26,AMPHET,AMPHETAMINES,DRUG SCREEN,NEGATIVE,,,,NEGATIVE," ",," "," ",,,,URINE,CENTRAL LAB,,STUDY DAY 8,8,2001,8
NIDA-CTN-0002,LB,02_005069,ACTIVE,34,AMPHET,AMPHETAMINES,DRUG SCREEN,NEGATIVE,,,,NEGATIVE," ",," "," ",,,,URINE,CENTRAL LAB,,STUDY DAY 10,10,2001,10
NIDA-CTN-0002,LB,02_005069,FOLLOW-UP 1,41,AMPHET,AMPHETAMINES,DRUG SCREEN,NEGATIVE,,,,NEGATIVE," ",," "," ",,,,URINE,CENTRAL LAB,,FOLLOW-UP 1,15,2001,60
NIDA-CTN-0002,LB,02_005069,FOLLOW-UP 2,48,AMPHET,AMPHETAMINES,DRUG SCREEN,NEGATIVE,,,,NEGATIVE," ",," "," ",,,,URINE,CENTRAL LAB,,FOLLOW-UP 2,16,2001,94
NIDA-CTN-0002,LB,02_005069,FOLLOW-UP 3,55,AMPHET,AMPHETAMINES,DRUG SCREEN,NEGATIVE,,,,NEGATIVE," ",," "," ",,,,URINE,CENTRAL LAB,,FOLLOW-UP 3,17,2001,185
NIDA-CTN-0002,LB,02_005069,SCREENING,3,BARBIT,BARBITURATES,DRUG SCREEN,NEGATIVE,,,,NEGATIVE," ",," "," ",,,,URINE,ACCUTEST,Y,"BASELINE, ANY DAY PRIOR TO FIRST DOSE",0,2001,-1
NIDA-CTN-0002,LB,02_005069,SCREENING,4,BENZOD,BENZODIAZEPINES,DRUG SCREEN,NEGATIVE,,,,NEGATIVE," ",," "," ",,,,URINE,ACCUTEST,Y,"BASELINE, ANY DAY PRIOR TO FIRST DOSE",0,2001,-1
NIDA-CTN-0002,LB,02_005069,SCREENING,13,BENZOD,BENZODIAZEPINES,DRUG SCREEN,NEGATIVE,,,,NEGATIVE," ",," "," ",,,,URINE,CENTRAL LAB,Y,"BASELINE, ANY DAY PRIOR TO FIRST DOSE",0,2001,-1
NIDA-CTN-0002,LB,02_005069,ACTIVE,20,BENZOD,BENZODIAZEPINES,DRUG SCREEN,NEGATIVE,,,,NEGATIVE," ",," "," ",,,,URINE,CENTRAL LAB,,STUDY DAY 3,3,2001,3
NIDA-CTN-0002,LB,02_005069,ACTIVE,27,BENZOD,BENZODIAZEPINES,DRUG SCREEN,NEGATIVE,,,,NEGATIVE," ",," "," ",,,,URINE,CENTRAL LAB,,STUDY DAY 8,8,2001,8
NIDA-CTN-0002,LB,02_005069,ACTIVE,35,BENZOD,BENZODIAZEPINES,DRUG SCREEN,NEGATIVE,,,,NEGATIVE," ",," "," ",,,,URINE,CENTRAL LAB,,STUDY DAY 10,10,2001,10
NIDA-CTN-0002,LB,02_005069,FOLLOW-UP 1,42,BENZOD,BENZODIAZEPINES,DRUG SCREEN,NEGATIVE,,,,NEGATIVE," ",," "," ",,,,URINE,CENTRAL LAB,,FOLLOW-UP 1,15,2001,60
NIDA-CTN-0002,LB,02_005069,FOLLOW-UP 2,49,BENZOD,BENZODIAZEPINES,DRUG SCREEN,NEGATIVE,,,,NEGATIVE," ",," "," ",,,,URINE,CENTRAL LAB,,FOLLOW-UP 2,16,2001,94
NIDA-CTN-0002,LB,02_005069,FOLLOW-UP 3,56,BENZOD,BENZODIAZEPINES,DRUG SCREEN,NEGATIVE,,,,NEGATIVE," ",," "," ",,,,URINE,CENTRAL LAB,,FOLLOW-UP 3,17,2001,185
NIDA-CTN-0002,LB,02_005069,SCREENING,5,COCAINE,COCAINE,DRUG SCREEN,NEGATIVE,,,,NEGATIVE," ",," "," ",,,,URINE,ACCUTEST,Y,"BASELINE, ANY DAY PRIOR TO FIRST DOSE",0,2001,-1
NIDA-CTN-0002,LB,02_005069,SCREENING,14,COCAINE,COCAINE,DRUG SCREEN,NEGATIVE,,,,NEGATIVE," ",," "," ",,,,URINE,CENTRAL LAB,Y,"BASELINE, ANY DAY PRIOR TO FIRST DOSE",0,2001,-1
NIDA-CTN-0002,LB,02_005069,ACTIVE,21,COCAINE,COCAINE,DRUG SCREEN,NEGATIVE,,,,NEGATIVE," ",," "," ",,,,URINE,CENTRAL LAB,,STUDY DAY 3,3,2001,3
NIDA-CTN-0002,LB,02_005069,ACTIVE,28,COCAINE,COCAINE,DRUG SCREEN,NEGATIVE,,,,NEGATIVE," ",," "," ",,,,URINE,CENTRAL LAB,,STUDY DAY 8,8,2001,8
NIDA-CTN-0002,LB,02_005069,ACTIVE,36,COCAINE,COCAINE,DRUG SCREEN,NEGATIVE,,,,NEGATIVE," ",," "," ",,,,URINE,CENTRAL LAB,,STUDY DAY 10,10,2001,10
NIDA-CTN-0002,LB,02_005069,FOLLOW-UP 1,43,COCAINE,COCAINE,DRUG SCREEN,NEGATIVE,,,,NEGATIVE," ",," "," ",,,,URINE,CENTRAL LAB,,FOLLOW-UP 1,15,2001,60
NIDA-CTN-0002,LB,02_005069,FOLLOW-UP 2,50,COCAINE,COCAINE,DRUG SCREEN,POSITIVE,,,,POSITIVE," ",," "," ",,,,URINE,CENTRAL LAB,,FOLLOW-UP 2,16,2001,94
NIDA-CTN-0002,LB,02_005069,FOLLOW-UP 3,57,COCAINE,COCAINE,DRUG SCREEN,NEGATIVE,,,,NEGATIVE," ",," "," ",,,,URINE,CENTRAL LAB,,FOLLOW-UP 3,17,2001,185
NIDA-CTN-0002,LB,02_005069,SCREENING,15,CREAT,CREATININE,CHEMISTRY,100.2,mg/dL,,,100.2,100.2,mg/dL," "," ",,,,URINE,CENTRAL LAB,Y,"BASELINE, ANY DAY PRIOR TO FIRST DOSE",0,2001,-1
NIDA-CTN-0002,LB,02_005069,ACTIVE,22,CREAT,CREATININE,CHEMISTRY,143.6,mg/dL,,,143.6,143.6,mg/dL," "," ",,,,URINE,CENTRAL LAB,,STUDY DAY 3,3,2001,3
NIDA-CTN-0002,LB,02_005069,ACTIVE,29,CREAT,CREATININE,CHEMISTRY,194.0,mg/dL,,,194.0,194,mg/dL," "," ",,,,URINE,CENTRAL LAB,,STUDY DAY 8,8,2001,8
NIDA-CTN-0002,LB,02_005069,ACTIVE,37,CREAT,CREATININE,CHEMISTRY,57.9,mg/dL,,,57.9,57.9,mg/dL," "," ",,,,URINE,CENTRAL LAB,,STUDY DAY 10,10,2001,10
NIDA-CTN-0002,LB,02_005069,FOLLOW-UP 1,44,CREAT,CREATININE,CHEMISTRY,176.1,mg/dL,,,176.1,176.1,mg/dL," "," ",,,,URINE,CENTRAL LAB,,FOLLOW-UP 1,15,2001,60
NIDA-CTN-0002,LB,02_005069,FOLLOW-UP 2,51,CREAT,CREATININE,CHEMISTRY,152.8,mg/dL,,,152.8,152.8,mg/dL," "," ",,,,URINE,CENTRAL LAB,,FOLLOW-UP 2,16,2001,94
NIDA-CTN-0002,LB,02_005069,FOLLOW-UP 3,58,CREAT,CREATININE,CHEMISTRY,97.8,mg/dL,,,97.8,97.8,mg/dL," "," ",,,,URINE,CENTRAL LAB,,FOLLOW-UP 3,17,2001,185
NIDA-CTN-0002,LB,02_005069,SCREENING,6,METH,METHAMPHETAMINE,DRUG SCREEN,NEGATIVE,,,,NEGATIVE," ",," "," ",,,,URINE,ACCUTEST,Y,"BASELINE, ANY DAY PRIOR TO FIRST DOSE",0,2001,-1
NIDA-CTN-0002,LB,02_005069,SCREENING,7,METHADON,METHADONE,DRUG SCREEN,NEGATIVE,,,,NEGATIVE," ",," "," ",,,,URINE,ACCUTEST,Y,"BASELINE, ANY DAY PRIOR TO FIRST DOSE",0,2001,-1
NIDA-CTN-0002,LB,02_005069,SCREENING,16,METHADON,METHADONE,DRUG SCREEN,NEGATIVE,,,,NEGATIVE," ",," "," ",,,,URINE,CENTRAL LAB,Y,"BASELINE, ANY DAY PRIOR TO FIRST DOSE",0,2001,-1
NIDA-CTN-0002,LB,02_005069,ACTIVE,23,METHADON,METHADONE,DRUG SCREEN,NEGATIVE,,,,NEGATIVE," ",," "," ",,,,URINE,CENTRAL LAB,,STUDY DAY 3,3,2001,3
NIDA-CTN-0002,LB,02_005069,ACTIVE,30,METHADON,METHADONE,DRUG SCREEN,NEGATIVE,,,,NEGATIVE," ",," "," ",,,,URINE,CENTRAL LAB,,STUDY DAY 8,8,2001,8
NIDA-CTN-0002,LB,02_005069,ACTIVE,38,METHADON,METHADONE,DRUG SCREEN,NEGATIVE,,,,NEGATIVE," ",," "," ",,,,URINE,CENTRAL LAB,,STUDY DAY 10,10,2001,10
NIDA-CTN-0002,LB,02_005069,FOLLOW-UP 1,45,METHADON,METHADONE,DRUG SCREEN,NEGATIVE,,,,NEGATIVE," ",," "," ",,,,URINE,CENTRAL LAB,,FOLLOW-UP 1,15,2001,60
NIDA-CTN-0002,LB,02_005069,FOLLOW-UP 2,52,METHADON,METHADONE,DRUG SCREEN,NEGATIVE,,,,NEGATIVE," ",," "," ",,,,URINE,CENTRAL LAB,,FOLLOW-UP 2,16,2001,94
NIDA-CTN-0002,LB,02_005069,FOLLOW-UP 3,59,METHADON,METHADONE,DRUG SCREEN,NEGATIVE,,,,NEGATIVE," ",," "," ",,,,URINE,CENTRAL LAB,,FOLLOW-UP 3,17,2001,185
NIDA-CTN-0002,LB,02_005069,SCREENING,8,MORPHINE,MORPHINE,DRUG SCREEN,NEGATIVE,,,,NEGATIVE," ",," "," ",,,,URINE,ACCUTEST,Y,"BASELINE, ANY DAY PRIOR TO FIRST DOSE",0,2001,-1
NIDA-CTN-0002,LB,02_005069,ACTIVE,1,NONE,NONE,DRUG SCREEN,,,,,," ",," "," ",,NOT DONE,PATIENT DID NOT ATTEND,URINE,CENTRAL LAB,,UNKNOWN,-99,," "
NIDA-CTN-0002,LB,02_005069,ACTIVE,33,NONE,NONE,DRUG SCREEN,,,,,," ",," "," ",,NOT DONE,PATIENT DID NOT ATTEND,URINE,ACCUTEST,,STUDY DAY 10,10,2001,10
NIDA-CTN-0002,LB,02_005069,SCREENING,17,OPIATE,OPIATE,DRUG SCREEN,POSITIVE,,,,POSITIVE," ",," "," ",,,,URINE,CENTRAL LAB,Y,"BASELINE, ANY DAY PRIOR TO FIRST DOSE",0,2001,-1
NIDA-CTN-0002,LB,02_005069,ACTIVE,24,OPIATE,OPIATE,DRUG SCREEN,POSITIVE,,,,POSITIVE," ",," "," ",,,,URINE,CENTRAL LAB,,STUDY DAY 3,3,2001,3
NIDA-CTN-0002,LB,02_005069,ACTIVE,31,OPIATE,OPIATE,DRUG SCREEN,POSITIVE,,,,POSITIVE," ",," "," ",,,,URINE,CENTRAL LAB,,STUDY DAY 8,8,2001,8
NIDA-CTN-0002,LB,02_005069,ACTIVE,39,OPIATE,OPIATE,DRUG SCREEN,POSITIVE,,,,POSITIVE," ",," "," ",,,,URINE,CENTRAL LAB,,STUDY DAY 10,10,2001,10
NIDA-CTN-0002,LB,02_005069,FOLLOW-UP 1,46,OPIATE,OPIATE,DRUG SCREEN,POSITIVE,,,,POSITIVE," ",," "," ",,,,URINE,CENTRAL LAB,,FOLLOW-UP 1,15,2001,60
NIDA-CTN-0002,LB,02_005069,FOLLOW-UP 2,53,OPIATE,OPIATE,DRUG SCREEN,POSITIVE,,,,POSITIVE," ",," "," ",,,,URINE,CENTRAL LAB,,FOLLOW-UP 2,16,2001,94
NIDA-CTN-0002,LB,02_005069,FOLLOW-UP 3,60,OPIATE,OPIATE,DRUG SCREEN,POSITIVE,,,,POSITIVE," ",," "," ",,,,URINE,CENTRAL LAB,,FOLLOW-UP 3,17,2001,185
NIDA-CTN-0002,LB,02_005069,SCREENING,9,PCP,PCP,DRUG SCREEN,POSITIVE,,,,POSITIVE," ",," "," ",,,,URINE,ACCUTEST,Y,"BASELINE, ANY DAY PRIOR TO FIRST DOSE",0,2001,-1
NIDA-CTN-0002,LB,02_005069,SCREENING,10,TCA,TCA,DRUG SCREEN,NEGATIVE,,,,NEGATIVE," ",," "," ",,,,URINE,ACCUTEST,Y,"BASELINE, ANY DAY PRIOR TO FIRST DOSE",0,2001,-1
NIDA-CTN-0002,LB,02_005069,SCREENING,11,THC,THC,DRUG SCREEN,NEGATIVE,,,,NEGATIVE," ",," "," ",,,,URINE,ACCUTEST,Y,"BASELINE, ANY DAY PRIOR TO FIRST DOSE",0,2001,-1
NIDA-CTN-0002,LB,02_005069,SCREENING,18,THC,THC,DRUG SCREEN,NEGATIVE,,,,NEGATIVE," ",," "," ",,,,URINE,CENTRAL LAB,Y,"BASELINE, ANY DAY PRIOR TO FIRST DOSE",0,2001,-1
NIDA-CTN-0002,LB,02_005069,ACTIVE,25,THC,THC,DRUG SCREEN,NEGATIVE,,,,NEGATIVE," ",," "," ",,,,URINE,CENTRAL LAB,,STUDY DAY 3,3,2001,3
NIDA-CTN-0002,LB,02_005069,ACTIVE,32,THC,THC,DRUG SCREEN,NEGATIVE,,,,NEGATIVE," ",," "," ",,,,URINE,CENTRAL LAB,,STUDY DAY 8,8,2001,8
NIDA-CTN-0002,LB,02_005069,ACTIVE,40,THC,THC,DRUG SCREEN,NEGATIVE,,,,NEGATIVE," ",," "," ",,,,URINE,CENTRAL LAB,,STUDY DAY 10,10,2001,10
NIDA-CTN-0002,LB,02_005069,FOLLOW-UP 1,47,THC,THC,DRUG SCREEN,NEGATIVE,,,,NEGATIVE," ",," "," ",,,,URINE,CENTRAL LAB,,FOLLOW-UP 1,15,2001,60
NIDA-CTN-0002,LB,02_005069,FOLLOW-UP 2,54,THC,THC,DRUG SCREEN,NEGATIVE,,,,NEGATIVE," ",," "," ",,,,URINE,CENTRAL LAB,,FOLLOW-UP 2,16,2001,94
NIDA-CTN-0002,LB,02_005069,FOLLOW-UP 3,61,THC,THC,DRUG SCREEN,NEGATIVE,,,,NEGATIVE," ",," "," ",,,,URINE,CENTRAL LAB,,FOLLOW-UP 3,17,2001,185
NIDA-CTN-0002,LB,02_005418,SCREENING,1,AMPHET,AMPHETAMINES,DRUG SCREEN,NEGATIVE,,,,NEGATIVE," ",," "," ",,,,URINE,ACCUTEST,Y,"BASELINE, ANY DAY PRIOR TO FIRST DOSE",0,2001,-1
NIDA-CTN-0002,LB,02_005418,SCREENING,11,AMPHET,AMPHETAMINES,DRUG SCREEN,NEGATIVE,,,,NEGATIVE," ",," "," ",,,,URINE,CENTRAL LAB,Y,"BASELINE, ANY DAY PRIOR TO FIRST DOSE",0,2001,-1
NIDA-CTN-0002,LB,02_005418,ACTIVE,19,AMPHET,AMPHETAMINES,DRUG SCREEN,NEGATIVE,,,,NEGATIVE," ",," "," ",,,,URINE,CENTRAL LAB,,STUDY DAY 3,3,2001,3
NIDA-CTN-0002,LB,02_005418,SCREENING,2,BARBIT,BARBITURATES,DRUG SCREEN,NEGATIVE,,,,NEGATIVE," ",," "," ",,,,URINE,ACCUTEST,Y,"BASELINE, ANY DAY PRIOR TO FIRST DOSE",0,2001,-1
NIDA-CTN-0002,LB,02_005418,SCREENING,3,BENZOD,BENZODIAZEPINES,DRUG SCREEN,NEGATIVE,,,,NEGATIVE," ",," "," ",,,,URINE,ACCUTEST,Y,"BASELINE, ANY DAY PRIOR TO FIRST DOSE",0,2001,-1
NIDA-CTN-0002,LB,02_005418,SCREENING,12,BENZOD,BENZODIAZEPINES,DRUG SCREEN,NEGATIVE,,,,NEGATIVE," ",," "," ",,,,URINE,CENTRAL LAB,Y,"BASELINE, ANY DAY PRIOR TO FIRST DOSE",0,2001,-1
NIDA-CTN-0002,LB,02_005418,ACTIVE,20,BENZOD,BENZODIAZEPINES,DRUG SCREEN,POSITIVE,,,,POSITIVE," ",," "," ",,,,URINE,CENTRAL LAB,,STUDY DAY 3,3,2001,3
NIDA-CTN-0002,LB,02_005418,SCREENING,4,COCAINE,COCAINE,DRUG SCREEN,NEGATIVE,,,,NEGATIVE," ",," "," ",,,,URINE,ACCUTEST,Y,"BASELINE, ANY DAY PRIOR TO FIRST DOSE",0,2001,-1
NIDA-CTN-0002,LB,02_005418,SCREENING,13,COCAINE,COCAINE,DRUG SCREEN,NEGATIVE,,,,NEGATIVE," ",," "," ",,,,URINE,CENTRAL LAB,Y,"BASELINE, ANY DAY PRIOR TO FIRST DOSE",0,2001,-1
NIDA-CTN-0002,LB,02_005418,ACTIVE,21,COCAINE,COCAINE,DRUG SCREEN,NEGATIVE,,,,NEGATIVE," ",," "," ",,,,URINE,CENTRAL LAB,,STUDY DAY 3,3,2001,3
NIDA-CTN-0002,LB,02_005418,SCREENING,14,CREAT,CREATININE,CHEMISTRY,171.6,mg/dL,,,171.6,171.6,mg/dL," "," ",,,,URINE,CENTRAL LAB,Y,"BASELINE, ANY DAY PRIOR TO FIRST DOSE",0,2001,-1
NIDA-CTN-0002,LB,02_005418,ACTIVE,22,CREAT,CREATININE,CHEMISTRY,349.6,mg/dL,,,349.6,349.6,mg/dL," "," ",,,,URINE,CENTRAL LAB,,STUDY DAY 3,3,2001,3
NIDA-CTN-0002,LB,02_005418,SCREENING,5,METH,METHAMPHETAMINE,DRUG SCREEN,NEGATIVE,,,,NEGATIVE," ",," "," ",,,,URINE,ACCUTEST,Y,"BASELINE, ANY DAY PRIOR TO FIRST DOSE",0,2001,-1
NIDA-CTN-0002,LB,02_005418,SCREENING,6,METHADON,METHADONE,DRUG SCREEN,NEGATIVE,,,,NEGATIVE," ",," "," ",,,,URINE,ACCUTEST,Y,"BASELINE, ANY DAY PRIOR TO FIRST DOSE",0,2001,-1
NIDA-CTN-0002,LB,02_005418,SCREENING,15,METHADON,METHADONE,DRUG SCREEN,NEGATIVE,,,,NEGATIVE," ",," "," ",,,,URINE,CENTRAL LAB,Y,"BASELINE, ANY DAY PRIOR TO FIRST DOSE",0,2001,-1
NIDA-CTN-0002,LB,02_005418,ACTIVE,23,METHADON,METHADONE,DRUG SCREEN,NEGATIVE,,,,NEGATIVE," ",," "," ",,,,URINE,CENTRAL LAB,,STUDY DAY 3,3,2001,3
NIDA-CTN-0002,LB,02_005418,SCREENING,7,MORPHINE,MORPHINE,DRUG SCREEN,NEGATIVE,,,,NEGATIVE," ",," "," ",,,,URINE,ACCUTEST,Y,"BASELINE, ANY DAY PRIOR TO FIRST DOSE",0,2001,-1
NIDA-CTN-0002,LB,02_005418,ACTIVE,18,NONE,NONE,DRUG SCREEN,,,,,," ",," "," ",,NOT DONE,PATIENT DID NOT ATTEND,URINE,ACCUTEST,,STUDY DAY 3,3,2001,3
NIDA-CTN-0002,LB,02_005418,ACTIVE,26,NONE,NONE,DRUG SCREEN,,,,,," ",," "," ",,NOT DONE,PATIENT DID NOT ATTEND,URINE,CENTRAL LAB,,STUDY DAY 8,8,," "
NIDA-CTN-0002,LB,02_005418,ACTIVE,27,NONE,NONE,DRUG SCREEN,,,,,," ",," "," ",,NOT DONE,PATIENT DID NOT ATTEND,URINE,CENTRAL LAB,,STUDY DAY 10,10,," "
NIDA-CTN-0002,LB,02_005418,ACTIVE,28,NONE,NONE,DRUG SCREEN,,,,,," ",," "," ",,NOT DONE,PATIENT DID NOT ATTEND,URINE,CENTRAL LAB,,STUDY DAY 14,14,," "
NIDA-CTN-0002,LB,02_005418,FOLLOW-UP 1,29,NONE,NONE,DRUG SCREEN,,,,,," ",," "," ",,NOT DONE,PATIENT DID NOT ATTEND,URINE,CENTRAL LAB,,FOLLOW-UP 1,15,," "
NIDA-CTN-0002,LB,02_005418,FOLLOW-UP 2,30,NONE,NONE,DRUG SCREEN,,,,,," ",," "," ",,NOT DONE,PATIENT DID NOT ATTEND,URINE,CENTRAL LAB,,FOLLOW-UP 2,16,," "
NIDA-CTN-0002,LB,02_005418,FOLLOW-UP 3,31,NONE,NONE,DRUG SCREEN,,,,,," ",," "," ",,NOT DONE,PATIENT DID NOT ATTEND,URINE,CENTRAL LAB,,FOLLOW-UP 3,17,," "
NIDA-CTN-0002,LB,02_005418,SCREENING,16,OPIATE,OPIATE,DRUG SCREEN,POSITIVE,,,,POSITIVE," ",," "," ",,,,URINE,CENTRAL LAB,Y,"BASELINE, ANY DAY PRIOR TO FIRST DOSE",0,2001,-1
NIDA-CTN-0002,LB,02_005418,ACTIVE,24,OPIATE,OPIATE,DRUG SCREEN,NEGATIVE,,,,NEGATIVE," ",," "," ",,,,URINE,CENTRAL LAB,,STUDY DAY 3,3,2001,3
NIDA-CTN-0002,LB,02_005418,SCREENING,8,PCP,PCP,DRUG SCREEN,NEGATIVE,,,,NEGATIVE," ",," "," ",,,,URINE,ACCUTEST,Y,"BASELINE, ANY DAY PRIOR TO FIRST DOSE",0,2001,-1
NIDA-CTN-0002,LB,02_005418,SCREENING,9,TCA,TCA,DRUG SCREEN,NEGATIVE,,,,NEGATIVE," ",," "," ",,,,URINE,ACCUTEST,Y,"BASELINE, ANY DAY PRIOR TO FIRST DOSE",0,2001,-1
NIDA-CTN-0002,LB,02_005418,SCREENING,10,THC,THC,DRUG SCREEN,POSITIVE,,,,POSITIVE," ",," "," ",,,,URINE,ACCUTEST,Y,"BASELINE, ANY DAY PRIOR TO FIRST DOSE",0,2001,-1
NIDA-CTN-0002,LB,02_005418,SCREENING,17,THC,THC,DRUG SCREEN,POSITIVE,,,,POSITIVE," ",," "," ",,,,URINE,CENTRAL LAB,Y,"BASELINE, ANY DAY PRIOR TO FIRST DOSE",0,2001,-1
NIDA-CTN-0002,LB,02_005418,ACTIVE,25,THC,THC,DRUG SCREEN,POSITIVE,,,,POSITIVE," ",," "," ",,,,URINE,CENTRAL LAB,,STUDY DAY 3,3,2001,3
NIDA-CTN-0002,LB,02_006479,SCREENING,1,AMPHET,AMPHETAMINES,DRUG SCREEN,NEGATIVE,,,,NEGATIVE," ",," "," ",,,,URINE,ACCUTEST,Y,"BASELINE, ANY DAY PRIOR TO FIRST DOSE",0,2002,1
NIDA-CTN-0002,LB,02_006479,ACTIVE,12,AMPHET,AMPHETAMINES,DRUG SCREEN,NEGATIVE,,,,NEGATIVE," ",," "," ",,,,URINE,CENTRAL LAB,,STUDY DAY 3,3,2002,3
NIDA-CTN-0002,LB,02_006479,FOLLOW-UP 2,20,AMPHET,AMPHETAMINES,DRUG SCREEN,NEGATIVE,,,,NEGATIVE," ",," "," ",,,,URINE,CENTRAL LAB,,FOLLOW-UP 2,16,2002,90
NIDA-CTN-0002,LB,02_006479,SCREENING,2,BARBIT,BARBITURATES,DRUG SCREEN,NEGATIVE,,,,NEGATIVE," ",," "," ",,,,URINE,ACCUTEST,Y,"BASELINE, ANY DAY PRIOR TO FIRST DOSE",0,2002,1
NIDA-CTN-0002,LB,02_006479,SCREENING,3,BENZOD,BENZODIAZEPINES,DRUG SCREEN,NEGATIVE,,,,NEGATIVE," ",," "," ",,,,URINE,ACCUTEST,Y,"BASELINE, ANY DAY PRIOR TO FIRST DOSE",0,2002,1
NIDA-CTN-0002,LB,02_006479,ACTIVE,13,BENZOD,BENZODIAZEPINES,DRUG SCREEN,NEGATIVE,,,,NEGATIVE," ",," "," ",,,,URINE,CENTRAL LAB,,STUDY DAY 3,3,2002,3
NIDA-CTN-0002,LB,02_006479,FOLLOW-UP 2,21,BENZOD,BENZODIAZEPINES,DRUG SCREEN,NEGATIVE,,,,NEGATIVE," ",," "," ",,,,URINE,CENTRAL LAB,,FOLLOW-UP 2,16,2002,90
NIDA-CTN-0002,LB,02_006479,SCREENING,4,COCAINE,COCAINE,DRUG SCREEN,NEGATIVE,,,,NEGATIVE," ",," "," ",,,,URINE,ACCUTEST,Y,"BASELINE, ANY DAY PRIOR TO FIRST DOSE",0,2002,1
NIDA-CTN-0002,LB,02_006479,ACTIVE,14,COCAINE,COCAINE,DRUG SCREEN,NEGATIVE,,,,NEGATIVE," ",," "," ",,,,URINE,CENTRAL LAB,,STUDY DAY 3,3,2002,3
NIDA-CTN-0002,LB,02_006479,FOLLOW-UP 2,22,COCAINE,COCAINE,DRUG SCREEN,NEGATIVE,,,,NEGATIVE," ",," "," ",,,,URINE,CENTRAL LAB,,FOLLOW-UP 2,16,2002,90
NIDA-CTN-0002,LB,02_006479,ACTIVE,15,CREAT,CREATININE,CHEMISTRY,288.6,mg/dL,,,288.6,288.6,mg/dL," "," ",,,,URINE,CENTRAL LAB,,STUDY DAY 3,3,2002,3
NIDA-CTN-0002,LB,02_006479,FOLLOW-UP 2,23,CREAT,CREATININE,CHEMISTRY,134.0,mg/dL,,,134.0,134,mg/dL," "," ",,,,URINE,CENTRAL LAB,,FOLLOW-UP 2,16,2002,90
NIDA-CTN-0002,LB,02_006479,SCREENING,5,METH,METHAMPHETAMINE,DRUG SCREEN,NEGATIVE,,,,NEGATIVE," ",," "," ",,,,URINE,ACCUTEST,Y,"BASELINE, ANY DAY PRIOR TO FIRST DOSE",0,2002,1
NIDA-CTN-0002,LB,02_006479,SCREENING,6,METHADON,METHADONE,DRUG SCREEN,NEGATIVE,,,,NEGATIVE," ",," "," ",,,,URINE,ACCUTEST,Y,"BASELINE, ANY DAY PRIOR TO FIRST DOSE",0,2002,1
NIDA-CTN-0002,LB,02_006479,ACTIVE,16,METHADON,METHADONE,DRUG SCREEN,NEGATIVE,,,,NEGATIVE," ",," "," ",,,,URINE,CENTRAL LAB,,STUDY DAY 3,3,2002,3
NIDA-CTN-0002,LB,02_006479,FOLLOW-UP 2,24,METHADON,METHADONE,DRUG SCREEN,NEGATIVE,,,,NEGATIVE," ",," "," ",,,,URINE,CENTRAL LAB,,FOLLOW-UP 2,16,2002,90
NIDA-CTN-0002,LB,02_006479,SCREENING,7,MORPHINE,MORPHINE,DRUG SCREEN,POSITIVE,,,,POSITIVE," ",," "," ",,,,URINE,ACCUTEST,Y,"BASELINE, ANY DAY PRIOR TO FIRST DOSE",0,2002,1
NIDA-CTN-0002,LB,02_006479,SCREENING,11,NONE,NONE,DRUG SCREEN,,,,,," ",," "," ",,,,URINE,CENTRAL LAB,Y,"BASELINE, ANY DAY PRIOR TO FIRST DOSE",0,2002,1
NIDA-CTN-0002,LB,02_006479,FOLLOW-UP 1,19,NONE,NONE,DRUG SCREEN,,,,,," ",," "," ",,NOT DONE,PATIENT DID NOT ATTEND,URINE,CENTRAL LAB,,FOLLOW-UP 1,15,2002,29
NIDA-CTN-0002,LB,02_006479,FOLLOW-UP 3,27,NONE,NONE,DRUG SCREEN,,,,,," ",," "," ",,NOT DONE,PATIENT DID NOT ATTEND,URINE,CENTRAL LAB,,FOLLOW-UP 3,17,2002,181
NIDA-CTN-0002,LB,02_006479,ACTIVE,17,OPIATE,OPIATE,DRUG SCREEN,NEGATIVE,,,,NEGATIVE," ",," "," ",,,,URINE,CENTRAL LAB,,STUDY DAY 3,3,2002,3
NIDA-CTN-0002,LB,02_006479,FOLLOW-UP 2,25,OPIATE,OPIATE,DRUG SCREEN,POSITIVE,,,,POSITIVE," ",," "," ",,,,URINE,CENTRAL LAB,,FOLLOW-UP 2,16,2002,90
NIDA-CTN-0002,LB,02_006479,SCREENING,8,PCP,PCP,DRUG SCREEN,NEGATIVE,,,,NEGATIVE," ",," "," ",,,,URINE,ACCUTEST,Y,"BASELINE, ANY DAY PRIOR TO FIRST DOSE",0,2002,1
NIDA-CTN-0002,LB,02_006479,SCREENING,9,TCA,TCA,DRUG SCREEN,NEGATIVE,,,,NEGATIVE," ",," "," ",,,,URINE,ACCUTEST,Y,"BASELINE, ANY DAY PRIOR TO FIRST DOSE",0,2002,1
NIDA-CTN-0002,LB,02_006479,SCREENING,10,THC,THC,DRUG SCREEN,POSITIVE,,,,POSITIVE," ",," "," ",,,,URINE,ACCUTEST,Y,"BASELINE, ANY DAY PRIOR TO FIRST DOSE",0,2002,1
NIDA-CTN-0002,LB,02_006479,ACTIVE,18,THC,THC,DRUG SCREEN,NEGATIVE,,,,NEGATIVE," ",," "," ",,,,URINE,CENTRAL LAB,,STUDY DAY 3,3,2002,3
NIDA-CTN-0002,LB,02_006479,FOLLOW-UP 2,26,THC,THC,DRUG SCREEN,POSITIVE,,,,POSITIVE," ",," "," ",,,,URINE,CENTRAL LAB,,FOLLOW-UP 2,16,2002,90
NIDA-CTN-0002,LB,02_006759,SCREENING,1,AMPHET,AMPHETAMINES,DRUG SCREEN,NEGATIVE,,,,NEGATIVE," ",," "," ",,,,URINE,ACCUTEST,Y,"BASELINE, ANY DAY PRIOR TO FIRST DOSE",0,2001,-1
NIDA-CTN-0002,LB,02_006759,SCREENING,11,AMPHET,AMPHETAMINES,DRUG SCREEN,NEGATIVE,,,,NEGATIVE," ",," "," ",,,,URINE,CENTRAL LAB,Y,"BASELINE, ANY DAY PRIOR TO FIRST DOSE",0,2001,-1
NIDA-CTN-0002,LB,02_006759,ACTIVE,18,AMPHET,AMPHETAMINES,DRUG SCREEN,NEGATIVE,,,,NEGATIVE," ",," "," ",,,,URINE,CENTRAL LAB,,STUDY DAY 3,3,2001,3
NIDA-CTN-0002,LB,02_006759,ACTIVE,26,AMPHET,AMPHETAMINES,DRUG SCREEN,NEGATIVE,,,,NEGATIVE," ",," "," ",,,,URINE,CENTRAL LAB,,STUDY DAY 10,10,2001,10
NIDA-CTN-0002,LB,02_006759,ACTIVE,33,AMPHET,AMPHETAMINES,DRUG SCREEN,NEGATIVE,,,,NEGATIVE," ",," "," ",,,,URINE,ACCUTEST,,STUDY DAY 14,14,2001,14
NIDA-CTN-0002,LB,02_006759,ACTIVE,43,AMPHET,AMPHETAMINES,DRUG SCREEN,NEGATIVE,,,,NEGATIVE," ",," "," ",,,,URINE,CENTRAL LAB,,STUDY DAY 14,14,2001,14
NIDA-CTN-0002,LB,02_006759,SCREENING,2,BARBIT,BARBITURATES,DRUG SCREEN,NEGATIVE,,,,NEGATIVE," ",," "," ",,,,URINE,ACCUTEST,Y,"BASELINE, ANY DAY PRIOR TO FIRST DOSE",0,2001,-1
NIDA-CTN-0002,LB,02_006759,ACTIVE,34,BARBIT,BARBITURATES,DRUG SCREEN,NEGATIVE,,,,NEGATIVE," ",," "," ",,,,URINE,ACCUTEST,,STUDY DAY 14,14,2001,14
NIDA-CTN-0002,LB,02_006759,SCREENING,3,BENZOD,BENZODIAZEPINES,DRUG SCREEN,NEGATIVE,,,,NEGATIVE," ",," "," ",,,,URINE,ACCUTEST,Y,"BASELINE, ANY DAY PRIOR TO FIRST DOSE",0,2001,-1
NIDA-CTN-0002,LB,02_006759,SCREENING,12,BENZOD,BENZODIAZEPINES,DRUG SCREEN,NEGATIVE,,,,NEGATIVE," ",," "," ",,,,URINE,CENTRAL LAB,Y,"BASELINE, ANY DAY PRIOR TO FIRST DOSE",0,2001,-1
NIDA-CTN-0002,LB,02_006759,ACTIVE,19,BENZOD,BENZODIAZEPINES,DRUG SCREEN,NEGATIVE,,,,NEGATIVE," ",," "," ",,,,URINE,CENTRAL LAB,,STUDY DAY 3,3,2001,3
NIDA-CTN-0002,LB,02_006759,ACTIVE,27,BENZOD,BENZODIAZEPINES,DRUG SCREEN,NEGATIVE,,,,NEGATIVE," ",," "," ",,,,URINE,CENTRAL LAB,,STUDY DAY 10,10,2001,10
NIDA-CTN-0002,LB,02_006759,ACTIVE,35,BENZOD,BENZODIAZEPINES,DRUG SCREEN,NEGATIVE,,,,NEGATIVE," ",," "," ",,,,URINE,ACCUTEST,,STUDY DAY 14,14,2001,14
NIDA-CTN-0002,LB,02_006759,ACTIVE,44,BENZOD,BENZODIAZEPINES,DRUG SCREEN,NEGATIVE,,,,NEGATIVE," ",," "," ",,,,URINE,CENTRAL LAB,,STUDY DAY 14,14,2001,14
NIDA-CTN-0002,LB,02_006759,SCREENING,4,COCAINE,COCAINE,DRUG SCREEN,NEGATIVE,,,,NEGATIVE," ",," "," ",,,,URINE,ACCUTEST,Y,"BASELINE, ANY DAY PRIOR TO FIRST DOSE",0,2001,-1
NIDA-CTN-0002,LB,02_006759,SCREENING,13,COCAINE,COCAINE,DRUG SCREEN,NEGATIVE,,,,NEGATIVE," ",," "," ",,,,URINE,CENTRAL LAB,Y,"BASELINE, ANY DAY PRIOR TO FIRST DOSE",0,2001,-1
NIDA-CTN-0002,LB,02_006759,ACTIVE,20,COCAINE,COCAINE,DRUG SCREEN,NEGATIVE,,,,NEGATIVE," ",," "," ",,,,URINE,CENTRAL LAB,,STUDY DAY 3,3,2001,3
NIDA-CTN-0002,LB,02_006759,ACTIVE,28,COCAINE,COCAINE,DRUG SCREEN,NEGATIVE,,,,NEGATIVE," ",," "," ",,,,URINE,CENTRAL LAB,,STUDY DAY 10,10,2001,10
NIDA-CTN-0002,LB,02_006759,ACTIVE,36,COCAINE,COCAINE,DRUG SCREEN,NEGATIVE,,,,NEGATIVE," ",," "," ",,,,URINE,ACCUTEST,,STUDY DAY 14,14,2001,14
NIDA-CTN-0002,LB,02_006759,ACTIVE,45,COCAINE,COCAINE,DRUG SCREEN,NEGATIVE,,,,NEGATIVE," ",," "," ",,,,URINE,CENTRAL LAB,,STUDY DAY 14,14,2001,14
NIDA-CTN-0002,LB,02_006759,SCREENING,14,CREAT,CREATININE,CHEMISTRY,236.8,mg/dL,,,236.8,236.8,mg/dL," "," ",,,,URINE,CENTRAL LAB,Y,"BASELINE, ANY DAY PRIOR TO FIRST DOSE",0,2001,-1
NIDA-CTN-0002,LB,02_006759,ACTIVE,21,CREAT,CREATININE,CHEMISTRY,66.0,mg/dL,,,66.0,66,mg/dL," "," ",,,,URINE,CENTRAL LAB,,STUDY DAY 3,3,2001,3
NIDA-CTN-0002,LB,02_006759,ACTIVE,29,CREAT,CREATININE,CHEMISTRY,59.5,mg/dL,,,59.5,59.5,mg/dL," "," ",,,,URINE,CENTRAL LAB,,STUDY DAY 10,10,2001,10
NIDA-CTN-0002,LB,02_006759,ACTIVE,46,CREAT,CREATININE,CHEMISTRY,146.6,mg/dL,,,146.6,146.6,mg/dL," "," ",,,,URINE,CENTRAL LAB,,STUDY DAY 14,14,2001,14
NIDA-CTN-0002,LB,02_006759,SCREENING,5,METH,METHAMPHETAMINE,DRUG SCREEN,NEGATIVE,,,,NEGATIVE," ",," "," ",,,,URINE,ACCUTEST,Y,"BASELINE, ANY DAY PRIOR TO FIRST DOSE",0,2001,-1
NIDA-CTN-0002,LB,02_006759,ACTIVE,37,METH,METHAMPHETAMINE,DRUG SCREEN,NEGATIVE,,,,NEGATIVE," ",," "," ",,,,URINE,ACCUTEST,,STUDY DAY 14,14,2001,14
NIDA-CTN-0002,LB,02_006759,SCREENING,6,METHADON,METHADONE,DRUG SCREEN,NEGATIVE,,,,NEGATIVE," ",," "," ",,,,URINE,ACCUTEST,Y,"BASELINE, ANY DAY PRIOR TO FIRST DOSE",0,2001,-1
NIDA-CTN-0002,LB,02_006759,SCREENING,15,METHADON,METHADONE,DRUG SCREEN,NEGATIVE,,,,NEGATIVE," ",," "," ",,,,URINE,CENTRAL LAB,Y,"BASELINE, ANY DAY PRIOR TO FIRST DOSE",0,2001,-1
NIDA-CTN-0002,LB,02_006759,ACTIVE,22,METHADON,METHADONE,DRUG SCREEN,NEGATIVE,,,,NEGATIVE," ",," "," ",,,,URINE,CENTRAL LAB,,STUDY DAY 3,3,2001,3
NIDA-CTN-0002,LB,02_006759,ACTIVE,30,METHADON,METHADONE,DRUG SCREEN,NEGATIVE,,,,NEGATIVE," ",," "," ",,,,URINE,CENTRAL LAB,,STUDY DAY 10,10,2001,10
NIDA-CTN-0002,LB,02_006759,ACTIVE,38,METHADON,METHADONE,DRUG SCREEN,NEGATIVE,,,,NEGATIVE," ",," "," ",,,,URINE,ACCUTEST,,STUDY DAY 14,14,2001,14
NIDA-CTN-0002,LB,02_006759,ACTIVE,47,METHADON,METHADONE,DRUG SCREEN,NEGATIVE,,,,NEGATIVE," ",," "," ",,,,URINE,CENTRAL LAB,,STUDY DAY 14,14,2001,14
NIDA-CTN-0002,LB,02_006759,SCREENING,7,MORPHINE,MORPHINE,DRUG SCREEN,POSITIVE,,,,POSITIVE," ",," "," ",,,,URINE,ACCUTEST,Y,"BASELINE, ANY DAY PRIOR TO FIRST DOSE",0,2001,-1
NIDA-CTN-0002,LB,02_006759,ACTIVE,39,MORPHINE,MORPHINE,DRUG SCREEN,POSITIVE,,,,POSITIVE," ",," "," ",,,,URINE,ACCUTEST,,STUDY DAY 14,14,2001,14
NIDA-CTN-0002,LB,02_006759,ACTIVE,25,NONE,NONE,DRUG SCREEN,,,,,," ",," "," ",,,,URINE,CENTRAL LAB,,STUDY DAY 7,7,2001,7
NIDA-CTN-0002,LB,02_006759,SCREENING,16,OPIATE,OPIATE,DRUG SCREEN,POSITIVE,,,,POSITIVE," ",," "," ",,,,URINE,CENTRAL LAB,Y,"BASELINE, ANY DAY PRIOR TO FIRST DOSE",0,2001,-1
NIDA-CTN-0002,LB,02_006759,ACTIVE,23,OPIATE,OPIATE,DRUG SCREEN,POSITIVE,,,,POSITIVE," ",," "," ",,,,URINE,CENTRAL LAB,,STUDY DAY 3,3,2001,3
NIDA-CTN-0002,LB,02_006759,ACTIVE,31,OPIATE,OPIATE,DRUG SCREEN,NEGATIVE,,,,NEGATIVE," ",," "," ",,,,URINE,CENTRAL LAB,,STUDY DAY 10,10,2001,10
NIDA-CTN-0002,LB,02_006759,ACTIVE,48,OPIATE,OPIATE,DRUG SCREEN,POSITIVE,,,,POSITIVE," ",," "," ",,,,URINE,CENTRAL LAB,,STUDY DAY 14,14,2001,14
NIDA-CTN-0002,LB,02_006759,SCREENING,8,PCP,PCP,DRUG SCREEN,NEGATIVE,,,,NEGATIVE," ",," "," ",,,,URINE,ACCUTEST,Y,"BASELINE, ANY DAY PRIOR TO FIRST DOSE",0,2001,-1
NIDA-CTN-0002,LB,02_006759,ACTIVE,40,PCP,PCP,DRUG SCREEN,NEGATIVE,,,,NEGATIVE," ",," "," ",,,,URINE,ACCUTEST,,STUDY DAY 14,14,2001,14
NIDA-CTN-0002,LB,02_006759,SCREENING,9,TCA,TCA,DRUG SCREEN,NEGATIVE,,,,NEGATIVE," ",," "," ",,,,URINE,ACCUTEST,Y,"BASELINE, ANY DAY PRIOR TO FIRST DOSE",0,2001,-1
NIDA-CTN-0002,LB,02_006759,ACTIVE,41,TCA,TCA,DRUG SCREEN,NEGATIVE,,,,NEGATIVE," ",," "," ",,,,URINE,ACCUTEST,,STUDY DAY 14,14,2001,14
NIDA-CTN-0002,LB,02_006759,SCREENING,10,THC,THC,DRUG SCREEN,NEGATIVE,,,,NEGATIVE," ",," "," ",,,,URINE,ACCUTEST,Y,"BASELINE, ANY DAY PRIOR TO FIRST DOSE",0,2001,-1
NIDA-CTN-0002,LB,02_006759,SCREENING,17,THC,THC,DRUG SCREEN,NEGATIVE,,,,NEGATIVE," ",," "," ",,,,URINE,CENTRAL LAB,Y,"BASELINE, ANY DAY PRIOR TO FIRST DOSE",0,2001,-1
NIDA-CTN-0002,LB,02_006759,ACTIVE,24,THC,THC,DRUG SCREEN,NEGATIVE,,,,NEGATIVE," ",," "," ",,,,URINE,CENTRAL LAB,,STUDY DAY 3,3,2001,3
NIDA-CTN-0002,LB,02_006759,ACTIVE,32,THC,THC,DRUG SCREEN,NEGATIVE,,,,NEGATIVE," ",," "," ",,,,URINE,CENTRAL LAB,,STUDY DAY 10,10,2001,10
NIDA-CTN-0002,LB,02_006759,ACTIVE,42,THC,THC,DRUG SCREEN,NEGATIVE,,,,NEGATIVE," ",," "," ",,,,URINE,ACCUTEST,,STUDY DAY 14,14,2001,14
NIDA-CTN-0002,LB,02_006759,ACTIVE,49,THC,THC,DRUG SCREEN,NEGATIVE,,,,NEGATIVE," ",," "," ",,,,URINE,CENTRAL LAB,,STUDY DAY 14,14,2001,14
NIDA-CTN-0002,LB,02_007189,ACTIVE,3,AMPHET,AMPHETAMINES,DRUG SCREEN,NEGATIVE,,,,NEGATIVE," ",," "," ",,,,URINE,CENTRAL LAB,,STUDY DAY 3,3,2001,3
NIDA-CTN-0002,LB,02_007189,ACTIVE,10,AMPHET,AMPHETAMINES,DRUG SCREEN,NEGATIVE,,,,NEGATIVE," ",," "," ",,,,URINE,CENTRAL LAB,,STUDY DAY 7,7,2001,7
NIDA-CTN-0002,LB,02_007189,ACTIVE,17,AMPHET,AMPHETAMINES,DRUG SCREEN,NEGATIVE,,,,NEGATIVE," ",," "," ",,,,URINE,CENTRAL LAB,,STUDY DAY 11,11,2001,11
NIDA-CTN-0002,LB,02_007189,ACTIVE,24,AMPHET,AMPHETAMINES,DRUG SCREEN,NEGATIVE,,,,NEGATIVE," ",," "," ",,,,URINE,ACCUTEST,,STUDY DAY 14,14,2001,14
NIDA-CTN-0002,LB,02_007189,ACTIVE,34,AMPHET,AMPHETAMINES,DRUG SCREEN,NEGATIVE,,,,NEGATIVE," ",," "," ",,,,URINE,CENTRAL LAB,,STUDY DAY 14,14,2001,14
NIDA-CTN-0002,LB,02_007189,FOLLOW-UP 1,41,AMPHET,AMPHETAMINES,DRUG SCREEN,NEGATIVE,,,,NEGATIVE," ",," "," ",,,,URINE,CENTRAL LAB,,FOLLOW-UP 1,15,2001,30
NIDA-CTN-0002,LB,02_007189,FOLLOW-UP 2,48,AMPHET,AMPHETAMINES,DRUG SCREEN,NEGATIVE,,,,NEGATIVE," ",," "," ",,,,URINE,CENTRAL LAB,,FOLLOW-UP 2,16,2001,109
NIDA-CTN-0002,LB,02_007189,FOLLOW-UP 3,55,AMPHET,AMPHETAMINES,DRUG SCREEN,NEGATIVE,,,,NEGATIVE," ",," "," ",,,,URINE,CENTRAL LAB,,FOLLOW-UP 3,17,2001,190
NIDA-CTN-0002,LB,02_007189,ACTIVE,25,BARBIT,BARBITURATES,DRUG SCREEN,NEGATIVE,,,,NEGATIVE," ",," "," ",,,,URINE,ACCUTEST,,STUDY DAY 14,14,2001,14
NIDA-CTN-0002,LB,02_007189,ACTIVE,4,BENZOD,BENZODIAZEPINES,DRUG SCREEN,NEGATIVE,,,,NEGATIVE," ",," "," ",,,,URINE,CENTRAL LAB,,STUDY DAY 3,3,2001,3
NIDA-CTN-0002,LB,02_007189,ACTIVE,11,BENZOD,BENZODIAZEPINES,DRUG SCREEN,NEGATIVE,,,,NEGATIVE," ",," "," ",,,,URINE,CENTRAL LAB,,STUDY DAY 7,7,2001,7
NIDA-CTN-0002,LB,02_007189,ACTIVE,18,BENZOD,BENZODIAZEPINES,DRUG SCREEN,NEGATIVE,,,,NEGATIVE," ",," "," ",,,,URINE,CENTRAL LAB,,STUDY DAY 11,11,2001,11
NIDA-CTN-0002,LB,02_007189,ACTIVE,26,BENZOD,BENZODIAZEPINES,DRUG SCREEN,NEGATIVE,,,,NEGATIVE," ",," "," ",,,,URINE,ACCUTEST,,STUDY DAY 14,14,2001,14
NIDA-CTN-0002,LB,02_007189,ACTIVE,35,BENZOD,BENZODIAZEPINES,DRUG SCREEN,NEGATIVE,,,,NEGATIVE," ",," "," ",,,,URINE,CENTRAL LAB,,STUDY DAY 14,14,2001,14
NIDA-CTN-0002,LB,02_007189,FOLLOW-UP 1,42,BENZOD,BENZODIAZEPINES,DRUG SCREEN,NEGATIVE,,,,NEGATIVE," ",," "," ",,,,URINE,CENTRAL LAB,,FOLLOW-UP 1,15,2001,30
NIDA-CTN-0002,LB,02_007189,FOLLOW-UP 2,49,BENZOD,BENZODIAZEPINES,DRUG SCREEN,NEGATIVE,,,,NEGATIVE," ",," "," ",,,,URINE,CENTRAL LAB,,FOLLOW-UP 2,16,2001,109
NIDA-CTN-0002,LB,02_007189,FOLLOW-UP 3,56,BENZOD,BENZODIAZEPINES,DRUG SCREEN,NEGATIVE,,,,NEGATIVE," ",," "," ",,,,URINE,CENTRAL LAB,,FOLLOW-UP 3,17,2001,190
NIDA-CTN-0002,LB,02_007189,ACTIVE,5,COCAINE,COCAINE,DRUG SCREEN,NEGATIVE,,,,NEGATIVE," ",," "," ",,,,URINE,CENTRAL LAB,,STUDY DAY 3,3,2001,3
NIDA-CTN-0002,LB,02_007189,ACTIVE,12,COCAINE,COCAINE,DRUG SCREEN,NEGATIVE,,,,NEGATIVE," ",," "," ",,,,URINE,CENTRAL LAB,,STUDY DAY 7,7,2001,7
NIDA-CTN-0002,LB,02_007189,ACTIVE,19,COCAINE,COCAINE,DRUG SCREEN,NEGATIVE,,,,NEGATIVE," ",," "," ",,,,URINE,CENTRAL LAB,,STUDY DAY 11,11,2001,11
NIDA-CTN-0002,LB,02_007189,ACTIVE,27,COCAINE,COCAINE,DRUG SCREEN,NEGATIVE,,,,NEGATIVE," ",," "," ",,,,URINE,ACCUTEST,,STUDY DAY 14,14,2001,14
NIDA-CTN-0002,LB,02_007189,ACTIVE,36,COCAINE,COCAINE,DRUG SCREEN,NEGATIVE,,,,NEGATIVE," ",," "," ",,,,URINE,CENTRAL LAB,,STUDY DAY 14,14,2001,14
NIDA-CTN-0002,LB,02_007189,FOLLOW-UP 1,43,COCAINE,COCAINE,DRUG SCREEN,NEGATIVE,,,,NEGATIVE," ",," "," ",,,,URINE,CENTRAL LAB,,FOLLOW-UP 1,15,2001,30
NIDA-CTN-0002,LB,02_007189,FOLLOW-UP 2,50,COCAINE,COCAINE,DRUG SCREEN,NEGATIVE,,,,NEGATIVE," ",," "," ",,,,URINE,CENTRAL LAB,,FOLLOW-UP 2,16,2001,109
NIDA-CTN-0002,LB,02_007189,FOLLOW-UP 3,57,COCAINE,COCAINE,DRUG SCREEN,NEGATIVE,,,,NEGATIVE," ",," "," ",,,,URINE,CENTRAL LAB,,FOLLOW-UP 3,17,2001,190
NIDA-CTN-0002,LB,02_007189,ACTIVE,6,CREAT,CREATININE,CHEMISTRY,92.8,mg/dL,,,92.8,92.8,mg/dL," "," ",,,,URINE,CENTRAL LAB,,STUDY DAY 3,3,2001,3
NIDA-CTN-0002,LB,02_007189,ACTIVE,13,CREAT,CREATININE,CHEMISTRY,98.0,mg/dL,,,98.0,98,mg/dL," "," ",,,,URINE,CENTRAL LAB,,STUDY DAY 7,7,2001,7
NIDA-CTN-0002,LB,02_007189,ACTIVE,20,CREAT,CREATININE,CHEMISTRY,93.9,mg/dL,,,93.9,93.9,mg/dL," "," ",,,,URINE,CENTRAL LAB,,STUDY DAY 11,11,2001,11
NIDA-CTN-0002,LB,02_007189,ACTIVE,37,CREAT,CREATININE,CHEMISTRY,96.3,mg/dL,,,96.3,96.3,mg/dL," "," ",,,,URINE,CENTRAL LAB,,STUDY DAY 14,14,2001,14
NIDA-CTN-0002,LB,02_007189,FOLLOW-UP 1,44,CREAT,CREATININE,CHEMISTRY,128.4,mg/dL,,,128.4,128.4,mg/dL," "," ",,,,URINE,CENTRAL LAB,,FOLLOW-UP 1,15,2001,30
NIDA-CTN-0002,LB,02_007189,FOLLOW-UP 2,51,CREAT,CREATININE,CHEMISTRY,99.6,mg/dL,,,99.6,99.6,mg/dL," "," ",,,,URINE,CENTRAL LAB,,FOLLOW-UP 2,16,2001,109
NIDA-CTN-0002,LB,02_007189,FOLLOW-UP 3,58,CREAT,CREATININE,CHEMISTRY,74.1,mg/dL,,,74.1,74.1,mg/dL," "," ",,,,URINE,CENTRAL LAB,,FOLLOW-UP 3,17,2001,190
NIDA-CTN-0002,LB,02_007189,ACTIVE,28,METH,METHAMPHETAMINE,DRUG SCREEN,NEGATIVE,,,,NEGATIVE," ",," "," ",,,,URINE,ACCUTEST,,STUDY DAY 14,14,2001,14
NIDA-CTN-0002,LB,02_007189,SCREENING,1,METHADON,METHADONE,DRUG SCREEN,NEGATIVE,,,,NEGATIVE," ",," "," ",,,,URINE,ACCUTEST,Y,"BASELINE, ANY DAY PRIOR TO FIRST DOSE",0,2001,1
NIDA-CTN-0002,LB,02_007189,ACTIVE,7,METHADON,METHADONE,DRUG SCREEN,NEGATIVE,,,,NEGATIVE," ",," "," ",,,,URINE,CENTRAL LAB,,STUDY DAY 3,3,2001,3
NIDA-CTN-0002,LB,02_007189,ACTIVE,14,METHADON,METHADONE,DRUG SCREEN,NEGATIVE,,,,NEGATIVE," ",," "," ",,,,URINE,CENTRAL LAB,,STUDY DAY 7,7,2001,7
NIDA-CTN-0002,LB,02_007189,ACTIVE,21,METHADON,METHADONE,DRUG SCREEN,NEGATIVE,,,,NEGATIVE," ",," "," ",,,,URINE,CENTRAL LAB,,STUDY DAY 11,11,2001,11
NIDA-CTN-0002,LB,02_007189,ACTIVE,29,METHADON,METHADONE,DRUG SCREEN,NEGATIVE,,,,NEGATIVE," ",," "," ",,,,URINE,ACCUTEST,,STUDY DAY 14,14,2001,14
NIDA-CTN-0002,LB,02_007189,ACTIVE,38,METHADON,METHADONE,DRUG SCREEN,NEGATIVE,,,,NEGATIVE," ",," "," ",,,,URINE,CENTRAL LAB,,STUDY DAY 14,14,2001,14
NIDA-CTN-0002,LB,02_007189,FOLLOW-UP 1,45,METHADON,METHADONE,DRUG SCREEN,NEGATIVE,,,,NEGATIVE," ",," "," ",,,,URINE,CENTRAL LAB,,FOLLOW-UP 1,15,2001,30
NIDA-CTN-0002,LB,02_007189,FOLLOW-UP 2,52,METHADON,METHADONE,DRUG SCREEN,POSITIVE,,,,POSITIVE," ",," "," ",,,,URINE,CENTRAL LAB,,FOLLOW-UP 2,16,2001,109
NIDA-CTN-0002,LB,02_007189,FOLLOW-UP 3,59,METHADON,METHADONE,DRUG SCREEN,POSITIVE,,,,POSITIVE," ",," "," ",,,,URINE,CENTRAL LAB,,FOLLOW-UP 3,17,2001,190
NIDA-CTN-0002,LB,02_007189,ACTIVE,30,MORPHINE,MORPHINE,DRUG SCREEN,POSITIVE,,,,POSITIVE," ",," "," ",,,,URINE,ACCUTEST,,STUDY DAY 14,14,2001,14
NIDA-CTN-0002,LB,02_007189,SCREENING,2,NONE,NONE,DRUG SCREEN,,,,,," ",," "," ",,,,URINE,CENTRAL LAB,Y,"BASELINE, ANY DAY PRIOR TO FIRST DOSE",0,2001,1
NIDA-CTN-0002,LB,02_007189,ACTIVE,8,OPIATE,OPIATE,DRUG SCREEN,POSITIVE,,,,POSITIVE," ",," "," ",,,,URINE,CENTRAL LAB,,STUDY DAY 3,3,2001,3
NIDA-CTN-0002,LB,02_007189,ACTIVE,15,OPIATE,OPIATE,DRUG SCREEN,NEGATIVE,,,,NEGATIVE," ",," "," ",,,,URINE,CENTRAL LAB,,STUDY DAY 7,7,2001,7
NIDA-CTN-0002,LB,02_007189,ACTIVE,22,OPIATE,OPIATE,DRUG SCREEN,NEGATIVE,,,,NEGATIVE," ",," "," ",,,,URINE,CENTRAL LAB,,STUDY DAY 11,11,2001,11
NIDA-CTN-0002,LB,02_007189,ACTIVE,39,OPIATE,OPIATE,DRUG SCREEN,POSITIVE,,,,POSITIVE," ",," "," ",,,,URINE,CENTRAL LAB,,STUDY DAY 14,14,2001,14
NIDA-CTN-0002,LB,02_007189,FOLLOW-UP 1,46,OPIATE,OPIATE,DRUG SCREEN,POSITIVE,,,,POSITIVE," ",," "," ",,,,URINE,CENTRAL LAB,,FOLLOW-UP 1,15,2001,30
NIDA-CTN-0002,LB,02_007189,FOLLOW-UP 2,53,OPIATE,OPIATE,DRUG SCREEN,POSITIVE,,,,POSITIVE," ",," "," ",,,,URINE,CENTRAL LAB,,FOLLOW-UP 2,16,2001,109
NIDA-CTN-0002,LB,02_007189,FOLLOW-UP 3,60,OPIATE,OPIATE,DRUG SCREEN,POSITIVE,,,,POSITIVE," ",," "," ",,,,URINE,CENTRAL LAB,,FOLLOW-UP 3,17,2001,190
NIDA-CTN-0002,LB,02_007189,ACTIVE,31,PCP,PCP,DRUG SCREEN,NEGATIVE,,,,NEGATIVE," ",," "," ",,,,URINE,ACCUTEST,,STUDY DAY 14,14,2001,14
NIDA-CTN-0002,LB,02_007189,ACTIVE,32,TCA,TCA,DRUG SCREEN,NEGATIVE,,,,NEGATIVE," ",," "," ",,,,URINE,ACCUTEST,,STUDY DAY 14,14,2001,14
NIDA-CTN-0002,LB,02_007189,ACTIVE,9,THC,THC,DRUG SCREEN,POSITIVE,,,,POSITIVE," ",," "," ",,,,URINE,CENTRAL LAB,,STUDY DAY 3,3,2001,3
NIDA-CTN-0002,LB,02_007189,ACTIVE,16,THC,THC,DRUG SCREEN,POSITIVE,,,,POSITIVE," ",," "," ",,,,URINE,CENTRAL LAB,,STUDY DAY 7,7,2001,7
NIDA-CTN-0002,LB,02_007189,ACTIVE,23,THC,THC,DRUG SCREEN,POSITIVE,,,,POSITIVE," ",," "," ",,,,URINE,CENTRAL LAB,,STUDY DAY 11,11,2001,11
NIDA-CTN-0002,LB,02_007189,ACTIVE,33,THC,THC,DRUG SCREEN,NEGATIVE,,,,NEGATIVE," ",," "," ",,,,URINE,ACCUTEST,,STUDY DAY 14,14,2001,14
NIDA-CTN-0002,LB,02_007189,ACTIVE,40,THC,THC,DRUG SCREEN,POSITIVE,,,,POSITIVE," ",," "," ",,,,URINE,CENTRAL LAB,,STUDY DAY 14,14,2001,14
NIDA-CTN-0002,LB,02_007189,FOLLOW-UP 1,47,THC,THC,DRUG SCREEN,POSITIVE,,,,POSITIVE," ",," "," ",,,,URINE,CENTRAL LAB,,FOLLOW-UP 1,15,2001,30
NIDA-CTN-0002,LB,02_007189,FOLLOW-UP 2,54,THC,THC,DRUG SCREEN,NEGATIVE,,,,NEGATIVE," ",," "," ",,,,URINE,CENTRAL LAB,,FOLLOW-UP 2,16,2001,109
NIDA-CTN-0002,LB,02_007189,FOLLOW-UP 3,61,THC,THC,DRUG SCREEN,NEGATIVE,,,,NEGATIVE," ",," "," ",,,,URINE,CENTRAL LAB,,FOLLOW-UP 3,17,2001,190
NIDA-CTN-0002,LB,02_007784,SCREENING,1,AMPHET,AMPHETAMINES,DRUG SCREEN,NEGATIVE,,,,NEGATIVE," ",," "," ",,,,URINE,ACCUTEST,Y,"BASELINE, ANY DAY PRIOR TO FIRST DOSE",0,2001,-1
NIDA-CTN-0002,LB,02_007784,SCREENING,11,AMPHET,AMPHETAMINES,DRUG SCREEN,NEGATIVE,,,,NEGATIVE," ",," "," ",,,,URINE,CENTRAL LAB,Y,"BASELINE, ANY DAY PRIOR TO FIRST DOSE",0,2001,-1
NIDA-CTN-0002,LB,02_007784,ACTIVE,18,AMPHET,AMPHETAMINES,DRUG SCREEN,NEGATIVE,,,,NEGATIVE," ",," "," ",,,,URINE,CENTRAL LAB,,STUDY DAY 4,4,2001,4
NIDA-CTN-0002,LB,02_007784,ACTIVE,25,AMPHET,AMPHETAMINES,DRUG SCREEN,NEGATIVE,,,,NEGATIVE," ",," "," ",,,,URINE,CENTRAL LAB,,STUDY DAY 8,8,2001,8
NIDA-CTN-0002,LB,02_007784,ACTIVE,32,AMPHET,AMPHETAMINES,DRUG SCREEN,NEGATIVE,,,,NEGATIVE," ",," "," ",,,,URINE,CENTRAL LAB,,STUDY DAY 11,11,2001,11
NIDA-CTN-0002,LB,02_007784,ACTIVE,39,AMPHET,AMPHETAMINES,DRUG SCREEN,NEGATIVE,,,,NEGATIVE," ",," "," ",,,,URINE,ACCUTEST,,STUDY DAY 14,14,2001,14
NIDA-CTN-0002,LB,02_007784,ACTIVE,49,AMPHET,AMPHETAMINES,DRUG SCREEN,NEGATIVE,,,,NEGATIVE," ",," "," ",,,,URINE,CENTRAL LAB,,STUDY DAY 14,14,2001,14
NIDA-CTN-0002,LB,02_007784,FOLLOW-UP 1,56,AMPHET,AMPHETAMINES,DRUG SCREEN,NEGATIVE,,,,NEGATIVE," ",," "," ",,,,URINE,CENTRAL LAB,,FOLLOW-UP 1,15,2001,60
NIDA-CTN-0002,LB,02_007784,FOLLOW-UP 2,63,AMPHET,AMPHETAMINES,DRUG SCREEN,NEGATIVE,,,,NEGATIVE," ",," "," ",,,,URINE,CENTRAL LAB,,FOLLOW-UP 2,16,2001,94
NIDA-CTN-0002,LB,02_007784,FOLLOW-UP 3,70,AMPHET,AMPHETAMINES,DRUG SCREEN,NEGATIVE,,,,NEGATIVE," ",," "," ",,,,URINE,CENTRAL LAB,,FOLLOW-UP 3,17,2001,198
NIDA-CTN-0002,LB,02_007784,SCREENING,2,BARBIT,BARBITURATES,DRUG SCREEN,NEGATIVE,,,,NEGATIVE," ",," "," ",,,,URINE,ACCUTEST,Y,"BASELINE, ANY DAY PRIOR TO FIRST DOSE",0,2001,-1
NIDA-CTN-0002,LB,02_007784,ACTIVE,40,BARBIT,BARBITURATES,DRUG SCREEN,NEGATIVE,,,,NEGATIVE," ",," "," ",,,,URINE,ACCUTEST,,STUDY DAY 14,14,2001,14
NIDA-CTN-0002,LB,02_007784,SCREENING,3,BENZOD,BENZODIAZEPINES,DRUG SCREEN,NEGATIVE,,,,NEGATIVE," ",," "," ",,,,URINE,ACCUTEST,Y,"BASELINE, ANY DAY PRIOR TO FIRST DOSE",0,2001,-1
NIDA-CTN-0002,LB,02_007784,SCREENING,12,BENZOD,BENZODIAZEPINES,DRUG SCREEN,NEGATIVE,,,,NEGATIVE," ",," "," ",,,,URINE,CENTRAL LAB,Y,"BASELINE, ANY DAY PRIOR TO FIRST DOSE",0,2001,-1
NIDA-CTN-0002,LB,02_007784,ACTIVE,19,BENZOD,BENZODIAZEPINES,DRUG SCREEN,NEGATIVE,,,,NEGATIVE," ",," "," ",,,,URINE,CENTRAL LAB,,STUDY DAY 4,4,2001,4
NIDA-CTN-0002,LB,02_007784,ACTIVE,26,BENZOD,BENZODIAZEPINES,DRUG SCREEN,NEGATIVE,,,,NEGATIVE," ",," "," ",,,,URINE,CENTRAL LAB,,STUDY DAY 8,8,2001,8
NIDA-CTN-0002,LB,02_007784,ACTIVE,33,BENZOD,BENZODIAZEPINES,DRUG SCREEN,NEGATIVE,,,,NEGATIVE," ",," "," ",,,,URINE,CENTRAL LAB,,STUDY DAY 11,11,2001,11
NIDA-CTN-0002,LB,02_007784,ACTIVE,41,BENZOD,BENZODIAZEPINES,DRUG SCREEN,NEGATIVE,,,,NEGATIVE," ",," "," ",,,,URINE,ACCUTEST,,STUDY DAY 14,14,2001,14
NIDA-CTN-0002,LB,02_007784,ACTIVE,50,BENZOD,BENZODIAZEPINES,DRUG SCREEN,NEGATIVE,,,,NEGATIVE," ",," "," ",,,,URINE,CENTRAL LAB,,STUDY DAY 14,14,2001,14
NIDA-CTN-0002,LB,02_007784,FOLLOW-UP 1,57,BENZOD,BENZODIAZEPINES,DRUG SCREEN,NEGATIVE,,,,NEGATIVE," ",," "," ",,,,URINE,CENTRAL LAB,,FOLLOW-UP 1,15,2001,60
NIDA-CTN-0002,LB,02_007784,FOLLOW-UP 2,64,BENZOD,BENZODIAZEPINES,DRUG SCREEN,NEGATIVE,,,,NEGATIVE," ",," "," ",,,,URINE,CENTRAL LAB,,FOLLOW-UP 2,16,2001,94
NIDA-CTN-0002,LB,02_007784,FOLLOW-UP 3,71,BENZOD,BENZODIAZEPINES,DRUG SCREEN,NEGATIVE,,,,NEGATIVE," ",," "," ",,,,URINE,CENTRAL LAB,,FOLLOW-UP 3,17,2001,198
NIDA-CTN-0002,LB,02_007784,SCREENING,4,COCAINE,COCAINE,DRUG SCREEN,NEGATIVE,,,,NEGATIVE," ",," "," ",,,,URINE,ACCUTEST,Y,"BASELINE, ANY DAY PRIOR TO FIRST DOSE",0,2001,-1
NIDA-CTN-0002,LB,02_007784,SCREENING,13,COCAINE,COCAINE,DRUG SCREEN,POSITIVE,,,,POSITIVE," ",," "," ",,,,URINE,CENTRAL LAB,Y,"BASELINE, ANY DAY PRIOR TO FIRST DOSE",0,2001,-1
NIDA-CTN-0002,LB,02_007784,ACTIVE,20,COCAINE,COCAINE,DRUG SCREEN,POSITIVE,,,,POSITIVE," ",," "," ",,,,URINE,CENTRAL LAB,,STUDY DAY 4,4,2001,4
NIDA-CTN-0002,LB,02_007784,ACTIVE,27,COCAINE,COCAINE,DRUG SCREEN,POSITIVE,,,,POSITIVE," ",," "," ",,,,URINE,CENTRAL LAB,,STUDY DAY 8,8,2001,8
NIDA-CTN-0002,LB,02_007784,ACTIVE,34,COCAINE,COCAINE,DRUG SCREEN,POSITIVE,,,,POSITIVE," ",," "," ",,,,URINE,CENTRAL LAB,,STUDY DAY 11,11,2001,11
NIDA-CTN-0002,LB,02_007784,ACTIVE,42,COCAINE,COCAINE,DRUG SCREEN,NEGATIVE,,,,NEGATIVE," ",," "," ",,,,URINE,ACCUTEST,,STUDY DAY 14,14,2001,14
NIDA-CTN-0002,LB,02_007784,ACTIVE,51,COCAINE,COCAINE,DRUG SCREEN,POSITIVE,,,,POSITIVE," ",," "," ",,,,URINE,CENTRAL LAB,,STUDY DAY 14,14,2001,14
NIDA-CTN-0002,LB,02_007784,FOLLOW-UP 1,58,COCAINE,COCAINE,DRUG SCREEN,POSITIVE,,,,POSITIVE," ",," "," ",,,,URINE,CENTRAL LAB,,FOLLOW-UP 1,15,2001,60
NIDA-CTN-0002,LB,02_007784,FOLLOW-UP 2,65,COCAINE,COCAINE,DRUG SCREEN,POSITIVE,,,,POSITIVE," ",," "," ",,,,URINE,CENTRAL LAB,,FOLLOW-UP 2,16,2001,94
NIDA-CTN-0002,LB,02_007784,FOLLOW-UP 3,72,COCAINE,COCAINE,DRUG SCREEN,POSITIVE,,,,POSITIVE," ",," "," ",,,,URINE,CENTRAL LAB,,FOLLOW-UP 3,17,2001,198
NIDA-CTN-0002,LB,02_007784,SCREENING,14,CREAT,CREATININE,CHEMISTRY,273.4,mg/dL,,,273.4,273.4,mg/dL," "," ",,,,URINE,CENTRAL LAB,Y,"BASELINE, ANY DAY PRIOR TO FIRST DOSE",0,2001,-1
NIDA-CTN-0002,LB,02_007784,ACTIVE,21,CREAT,CREATININE,CHEMISTRY,240.0,mg/dL,,,240.0,240,mg/dL," "," ",,,,URINE,CENTRAL LAB,,STUDY DAY 4,4,2001,4
NIDA-CTN-0002,LB,02_007784,ACTIVE,28,CREAT,CREATININE,CHEMISTRY,235.6,mg/dL,,,235.6,235.6,mg/dL," "," ",,,,URINE,CENTRAL LAB,,STUDY DAY 8,8,2001,8
NIDA-CTN-0002,LB,02_007784,ACTIVE,35,CREAT,CREATININE,CHEMISTRY,176.5,mg/dL,,,176.5,176.5,mg/dL," "," ",,,,URINE,CENTRAL LAB,,STUDY DAY 11,11,2001,11
NIDA-CTN-0002,LB,02_007784,ACTIVE,52,CREAT,CREATININE,CHEMISTRY,157.6,mg/dL,,,157.6,157.6,mg/dL," "," ",,,,URINE,CENTRAL LAB,,STUDY DAY 14,14,2001,14
NIDA-CTN-0002,LB,02_007784,FOLLOW-UP 1,59,CREAT,CREATININE,CHEMISTRY,145.2,mg/dL,,,145.2,145.2,mg/dL," "," ",,,,URINE,CENTRAL LAB,,FOLLOW-UP 1,15,2001,60
NIDA-CTN-0002,LB,02_007784,FOLLOW-UP 2,66,CREAT,CREATININE,CHEMISTRY,276.7,mg/dL,,,276.7,276.7,mg/dL," "," ",,,,URINE,CENTRAL LAB,,FOLLOW-UP 2,16,2001,94
NIDA-CTN-0002,LB,02_007784,FOLLOW-UP 3,73,CREAT,CREATININE,CHEMISTRY,190.0,mg/dL,,,190.0,190,mg/dL," "," ",,,,URINE,CENTRAL LAB,,FOLLOW-UP 3,17,2001,198
NIDA-CTN-0002,LB,02_007784,SCREENING,5,METH,METHAMPHETAMINE,DRUG SCREEN,NEGATIVE,,,,NEGATIVE," ",," "," ",,,,URINE,ACCUTEST,Y,"BASELINE, ANY DAY PRIOR TO FIRST DOSE",0,2001,-1
NIDA-CTN-0002,LB,02_007784,ACTIVE,43,METH,METHAMPHETAMINE,DRUG SCREEN,NEGATIVE,,,,NEGATIVE," ",," "," ",,,,URINE,ACCUTEST,,STUDY DAY 14,14,2001,14
NIDA-CTN-0002,LB,02_007784,SCREENING,6,METHADON,METHADONE,DRUG SCREEN,POSITIVE,,,,POSITIVE," ",," "," ",,,,URINE,ACCUTEST,Y,"BASELINE, ANY DAY PRIOR TO FIRST DOSE",0,2001,-1
NIDA-CTN-0002,LB,02_007784,SCREENING,15,METHADON,METHADONE,DRUG SCREEN,NEGATIVE,,,,NEGATIVE," ",," "," ",,,,URINE,CENTRAL LAB,Y,"BASELINE, ANY DAY PRIOR TO FIRST DOSE",0,2001,-1
NIDA-CTN-0002,LB,02_007784,ACTIVE,22,METHADON,METHADONE,DRUG SCREEN,NEGATIVE,,,,NEGATIVE," ",," "," ",,,,URINE,CENTRAL LAB,,STUDY DAY 4,4,2001,4
NIDA-CTN-0002,LB,02_007784,ACTIVE,29,METHADON,METHADONE,DRUG SCREEN,NEGATIVE,,,,NEGATIVE," ",," "," ",,,,URINE,CENTRAL LAB,,STUDY DAY 8,8,2001,8
NIDA-CTN-0002,LB,02_007784,ACTIVE,36,METHADON,METHADONE,DRUG SCREEN,NEGATIVE,,,,NEGATIVE," ",," "," ",,,,URINE,CENTRAL LAB,,STUDY DAY 11,11,2001,11
NIDA-CTN-0002,LB,02_007784,ACTIVE,44,METHADON,METHADONE,DRUG SCREEN,POSITIVE,,,,POSITIVE," ",," "," ",,,,URINE,ACCUTEST,,STUDY DAY 14,14,2001,14
NIDA-CTN-0002,LB,02_007784,ACTIVE,53,METHADON,METHADONE,DRUG SCREEN,NEGATIVE,,,,NEGATIVE," ",," "," ",,,,URINE,CENTRAL LAB,,STUDY DAY 14,14,2001,14
NIDA-CTN-0002,LB,02_007784,FOLLOW-UP 1,60,METHADON,METHADONE,DRUG SCREEN,NEGATIVE,,,,NEGATIVE," ",," "," ",,,,URINE,CENTRAL LAB,,FOLLOW-UP 1,15,2001,60
NIDA-CTN-0002,LB,02_007784,FOLLOW-UP 2,67,METHADON,METHADONE,DRUG SCREEN,NEGATIVE,,,,NEGATIVE," ",," "," ",,,,URINE,CENTRAL LAB,,FOLLOW-UP 2,16,2001,94
NIDA-CTN-0002,LB,02_007784,FOLLOW-UP 3,74,METHADON,METHADONE,DRUG SCREEN,NEGATIVE,,,,NEGATIVE," ",," "," ",,,,URINE,CENTRAL LAB,,FOLLOW-UP 3,17,2001,198
NIDA-CTN-0002,LB,02_007784,SCREENING,7,MORPHINE,MORPHINE,DRUG SCREEN,NEGATIVE,,,,NEGATIVE," ",," "," ",,,,URINE,ACCUTEST,Y,"BASELINE, ANY DAY PRIOR TO FIRST DOSE",0,2001,-1
NIDA-CTN-0002,LB,02_007784,ACTIVE,45,MORPHINE,MORPHINE,DRUG SCREEN,NEGATIVE,,,,NEGATIVE," ",," "," ",,,,URINE,ACCUTEST,,STUDY DAY 14,14,2001,14
NIDA-CTN-0002,LB,02_007784,SCREENING,16,OPIATE,OPIATE,DRUG SCREEN,POSITIVE,,,,POSITIVE," ",," "," ",,,,URINE,CENTRAL LAB,Y,"BASELINE, ANY DAY PRIOR TO FIRST DOSE",0,2001,-1
NIDA-CTN-0002,LB,02_007784,ACTIVE,23,OPIATE,OPIATE,DRUG SCREEN,POSITIVE,,,,POSITIVE," ",," "," ",,,,URINE,CENTRAL LAB,,STUDY DAY 4,4,2001,4
NIDA-CTN-0002,LB,02_007784,ACTIVE,30,OPIATE,OPIATE,DRUG SCREEN,POSITIVE,,,,POSITIVE," ",," "," ",,,,URINE,CENTRAL LAB,,STUDY DAY 8,8,2001,8
NIDA-CTN-0002,LB,02_007784,ACTIVE,37,OPIATE,OPIATE,DRUG SCREEN,POSITIVE,,,,POSITIVE," ",," "," ",,,,URINE,CENTRAL LAB,,STUDY DAY 11,11,2001,11
NIDA-CTN-0002,LB,02_007784,ACTIVE,54,OPIATE,OPIATE,DRUG SCREEN,POSITIVE,,,,POSITIVE," ",," "," ",,,,URINE,CENTRAL LAB,,STUDY DAY 14,14,2001,14
NIDA-CTN-0002,LB,02_007784,FOLLOW-UP 1,61,OPIATE,OPIATE,DRUG SCREEN,POSITIVE,,,,POSITIVE," ",," "," ",,,,URINE,CENTRAL LAB,,FOLLOW-UP 1,15,2001,60
NIDA-CTN-0002,LB,02_007784,FOLLOW-UP 2,68,OPIATE,OPIATE,DRUG SCREEN,POSITIVE,,,,POSITIVE," ",," "," ",,,,URINE,CENTRAL LAB,,FOLLOW-UP 2,16,2001,94
NIDA-CTN-0002,LB,02_007784,FOLLOW-UP 3,75,OPIATE,OPIATE,DRUG SCREEN,POSITIVE,,,,POSITIVE," ",," "," ",,,,URINE,CENTRAL LAB,,FOLLOW-UP 3,17,2001,198
NIDA-CTN-0002,LB,02_007784,SCREENING,8,PCP,PCP,DRUG SCREEN,POSITIVE,,,,POSITIVE," ",," "," ",,,,URINE,ACCUTEST,Y,"BASELINE, ANY DAY PRIOR TO FIRST DOSE",0,2001,-1
NIDA-CTN-0002,LB,02_007784,ACTIVE,46,PCP,PCP,DRUG SCREEN,POSITIVE,,,,POSITIVE," ",," "," ",,,,URINE,ACCUTEST,,STUDY DAY 14,14,2001,14
NIDA-CTN-0002,LB,02_007784,SCREENING,9,TCA,TCA,DRUG SCREEN,NEGATIVE,,,,NEGATIVE," ",," "," ",,,,URINE,ACCUTEST,Y,"BASELINE, ANY DAY PRIOR TO FIRST DOSE",0,2001,-1
NIDA-CTN-0002,LB,02_007784,ACTIVE,47,TCA,TCA,DRUG SCREEN,NEGATIVE,,,,NEGATIVE," ",," "," ",,,,URINE,ACCUTEST,,STUDY DAY 14,14,2001,14
NIDA-CTN-0002,LB,02_007784,SCREENING,10,THC,THC,DRUG SCREEN,NEGATIVE,,,,NEGATIVE," ",," "," ",,,,URINE,ACCUTEST,Y,"BASELINE, ANY DAY PRIOR TO FIRST DOSE",0,2001,-1
NIDA-CTN-0002,LB,02_007784,SCREENING,17,THC,THC,DRUG SCREEN,NEGATIVE,,,,NEGATIVE," ",," "," ",,,,URINE,CENTRAL LAB,Y,"BASELINE, ANY DAY PRIOR TO FIRST DOSE",0,2001,-1
NIDA-CTN-0002,LB,02_007784,ACTIVE,24,THC,THC,DRUG SCREEN,NEGATIVE,,,,NEGATIVE," ",," "," ",,,,URINE,CENTRAL LAB,,STUDY DAY 4,4,2001,4
NIDA-CTN-0002,LB,02_007784,ACTIVE,31,THC,THC,DRUG SCREEN,NEGATIVE,,,,NEGATIVE," ",," "," ",,,,URINE,CENTRAL LAB,,STUDY DAY 8,8,2001,8
NIDA-CTN-0002,LB,02_007784,ACTIVE,38,THC,THC,DRUG SCREEN,NEGATIVE,,,,NEGATIVE," ",," "," ",,,,URINE,CENTRAL LAB,,STUDY DAY 11,11,2001,11
NIDA-CTN-0002,LB,02_007784,ACTIVE,48,THC,THC,DRUG SCREEN,NEGATIVE,,,,NEGATIVE," ",," "," ",,,,URINE,ACCUTEST,,STUDY DAY 14,14,2001,14
NIDA-CTN-0002,LB,02_007784,ACTIVE,55,THC,THC,DRUG SCREEN,NEGATIVE,,,,NEGATIVE," ",," "," ",,,,URINE,CENTRAL LAB,,STUDY DAY 14,14,2001,14
NIDA-CTN-0002,LB,02_007784,FOLLOW-UP 1,62,THC,THC,DRUG SCREEN,NEGATIVE,,,,NEGATIVE," ",," "," ",,,,URINE,CENTRAL LAB,,FOLLOW-UP 1,15,2001,60
NIDA-CTN-0002,LB,02_007784,FOLLOW-UP 2,69,THC,THC,DRUG SCREEN,POSITIVE,,,,POSITIVE," ",," "," ",,,,URINE,CENTRAL LAB,,FOLLOW-UP 2,16,2001,94
NIDA-CTN-0002,LB,02_007784,FOLLOW-UP 3,76,THC,THC,DRUG SCREEN,POSITIVE,,,,POSITIVE," ",," "," ",,,,URINE,CENTRAL LAB,,FOLLOW-UP 3,17,2001,198
NIDA-CTN-0002,LB,02_008177,SCREENING,1,AMPHET,AMPHETAMINES,DRUG SCREEN,NEGATIVE,,,,NEGATIVE," ",," "," ",,,,URINE,ACCUTEST,Y,"BASELINE, ANY DAY PRIOR TO FIRST DOSE",0,2001,1
NIDA-CTN-0002,LB,02_008177,SCREENING,11,AMPHET,AMPHETAMINES,DRUG SCREEN,NEGATIVE,,,,NEGATIVE," ",," "," ",,,,URINE,CENTRAL LAB,Y,"BASELINE, ANY DAY PRIOR TO FIRST DOSE",0,2001,1
NIDA-CTN-0002,LB,02_008177,ACTIVE,18,AMPHET,AMPHETAMINES,DRUG SCREEN,NEGATIVE,,,,NEGATIVE," ",," "," ",,,,URINE,CENTRAL LAB,,STUDY DAY 4,4,2001,4
NIDA-CTN-0002,LB,02_008177,ACTIVE,25,AMPHET,AMPHETAMINES,DRUG SCREEN,NEGATIVE,,,,NEGATIVE," ",," "," ",,,,URINE,CENTRAL LAB,,STUDY DAY 8,8,2001,8
NIDA-CTN-0002,LB,02_008177,ACTIVE,32,AMPHET,AMPHETAMINES,DRUG SCREEN,NEGATIVE,,,,NEGATIVE," ",," "," ",,,,URINE,CENTRAL LAB,,STUDY DAY 11,11,2001,11
NIDA-CTN-0002,LB,02_008177,ACTIVE,39,AMPHET,AMPHETAMINES,DRUG SCREEN,NEGATIVE,,,,NEGATIVE," ",," "," ",,,,URINE,ACCUTEST,,STUDY DAY 14,14,2001,14
NIDA-CTN-0002,LB,02_008177,ACTIVE,49,AMPHET,AMPHETAMINES,DRUG SCREEN,NEGATIVE,,,,NEGATIVE," ",," "," ",,,,URINE,CENTRAL LAB,,STUDY DAY 14,14,2001,14
NIDA-CTN-0002,LB,02_008177,FOLLOW-UP 3,58,AMPHET,AMPHETAMINES,DRUG SCREEN,NEGATIVE,,,,NEGATIVE," ",," "," ",,,,URINE,CENTRAL LAB,,FOLLOW-UP 3,17,2001,196
NIDA-CTN-0002,LB,02_008177,SCREENING,2,BARBIT,BARBITURATES,DRUG SCREEN,NEGATIVE,,,,NEGATIVE," ",," "," ",,,,URINE,ACCUTEST,Y,"BASELINE, ANY DAY PRIOR TO FIRST DOSE",0,2001,1
NIDA-CTN-0002,LB,02_008177,ACTIVE,40,BARBIT,BARBITURATES,DRUG SCREEN,NEGATIVE,,,,NEGATIVE," ",," "," ",,,,URINE,ACCUTEST,,STUDY DAY 14,14,2001,14
NIDA-CTN-0002,LB,02_008177,SCREENING,3,BENZOD,BENZODIAZEPINES,DRUG SCREEN,NEGATIVE,,,,NEGATIVE," ",," "," ",,,,URINE,ACCUTEST,Y,"BASELINE, ANY DAY PRIOR TO FIRST DOSE",0,2001,1
NIDA-CTN-0002,LB,02_008177,SCREENING,12,BENZOD,BENZODIAZEPINES,DRUG SCREEN,NEGATIVE,,,,NEGATIVE," ",," "," ",,,,URINE,CENTRAL LAB,Y,"BASELINE, ANY DAY PRIOR TO FIRST DOSE",0,2001,1
NIDA-CTN-0002,LB,02_008177,ACTIVE,19,BENZOD,BENZODIAZEPINES,DRUG SCREEN,NEGATIVE,,,,NEGATIVE," ",," "," ",,,,URINE,CENTRAL LAB,,STUDY DAY 4,4,2001,4
NIDA-CTN-0002,LB,02_008177,ACTIVE,26,BENZOD,BENZODIAZEPINES,DRUG SCREEN,NEGATIVE,,,,NEGATIVE," ",," "," ",,,,URINE,CENTRAL LAB,,STUDY DAY 8,8,2001,8
NIDA-CTN-0002,LB,02_008177,ACTIVE,33,BENZOD,BENZODIAZEPINES,DRUG SCREEN,NEGATIVE,,,,NEGATIVE," ",," "," ",,,,URINE,CENTRAL LAB,,STUDY DAY 11,11,2001,11
NIDA-CTN-0002,LB,02_008177,ACTIVE,41,BENZOD,BENZODIAZEPINES,DRUG SCREEN,NEGATIVE,,,,NEGATIVE," ",," "," ",,,,URINE,ACCUTEST,,STUDY DAY 14,14,2001,14
NIDA-CTN-0002,LB,02_008177,ACTIVE,50,BENZOD,BENZODIAZEPINES,DRUG SCREEN,NEGATIVE,,,,NEGATIVE," ",," "," ",,,,URINE,CENTRAL LAB,,STUDY DAY 14,14,2001,14
NIDA-CTN-0002,LB,02_008177,FOLLOW-UP 3,59,BENZOD,BENZODIAZEPINES,DRUG SCREEN,NEGATIVE,,,,NEGATIVE," ",," "," ",,,,URINE,CENTRAL LAB,,FOLLOW-UP 3,17,2001,196
NIDA-CTN-0002,LB,02_008177,SCREENING,4,COCAINE,COCAINE,DRUG SCREEN,NEGATIVE,,,,NEGATIVE," ",," "," ",,,,URINE,ACCUTEST,Y,"BASELINE, ANY DAY PRIOR TO FIRST DOSE",0,2001,1
NIDA-CTN-0002,LB,02_008177,SCREENING,13,COCAINE,COCAINE,DRUG SCREEN,NEGATIVE,,,,NEGATIVE," ",," "," ",,,,URINE,CENTRAL LAB,Y,"BASELINE, ANY DAY PRIOR TO FIRST DOSE",0,2001,1
NIDA-CTN-0002,LB,02_008177,ACTIVE,20,COCAINE,COCAINE,DRUG SCREEN,NEGATIVE,,,,NEGATIVE," ",," "," ",,,,URINE,CENTRAL LAB,,STUDY DAY 4,4,2001,4
NIDA-CTN-0002,LB,02_008177,ACTIVE,27,COCAINE,COCAINE,DRUG SCREEN,NEGATIVE,,,,NEGATIVE," ",," "," ",,,,URINE,CENTRAL LAB,,STUDY DAY 8,8,2001,8
NIDA-CTN-0002,LB,02_008177,ACTIVE,34,COCAINE,COCAINE,DRUG SCREEN,NEGATIVE,,,,NEGATIVE," ",," "," ",,,,URINE,CENTRAL LAB,,STUDY DAY 11,11,2001,11
NIDA-CTN-0002,LB,02_008177,ACTIVE,42,COCAINE,COCAINE,DRUG SCREEN,POSITIVE,,,,POSITIVE," ",," "," ",,,,URINE,ACCUTEST,,STUDY DAY 14,14,2001,14
NIDA-CTN-0002,LB,02_008177,ACTIVE,51,COCAINE,COCAINE,DRUG SCREEN,POSITIVE,,,,POSITIVE," ",," "," ",,,,URINE,CENTRAL LAB,,STUDY DAY 14,14,2001,14
NIDA-CTN-0002,LB,02_008177,FOLLOW-UP 3,60,COCAINE,COCAINE,DRUG SCREEN,NEGATIVE,,,,NEGATIVE," ",," "," ",,,,URINE,CENTRAL LAB,,FOLLOW-UP 3,17,2001,196
NIDA-CTN-0002,LB,02_008177,SCREENING,14,CREAT,CREATININE,CHEMISTRY,156.8,mg/dL,,,156.8,156.8,mg/dL," "," ",,,,URINE,CENTRAL LAB,Y,"BASELINE, ANY DAY PRIOR TO FIRST DOSE",0,2001,1
NIDA-CTN-0002,LB,02_008177,ACTIVE,21,CREAT,CREATININE,CHEMISTRY,98.1,mg/dL,,,98.1,98.1,mg/dL," "," ",,,,URINE,CENTRAL LAB,,STUDY DAY 4,4,2001,4
NIDA-CTN-0002,LB,02_008177,ACTIVE,28,CREAT,CREATININE,CHEMISTRY,92.1,mg/dL,,,92.1,92.1,mg/dL," "," ",,,,URINE,CENTRAL LAB,,STUDY DAY 8,8,2001,8
NIDA-CTN-0002,LB,02_008177,ACTIVE,35,CREAT,CREATININE,CHEMISTRY,179.9,mg/dL,,,179.9,179.9,mg/dL," "," ",,,,URINE,CENTRAL LAB,,STUDY DAY 11,11,2001,11
NIDA-CTN-0002,LB,02_008177,ACTIVE,52,CREAT,CREATININE,CHEMISTRY,279.8,mg/dL,,,279.8,279.8,mg/dL," "," ",,,,URINE,CENTRAL LAB,,STUDY DAY 14,14,2001,14
NIDA-CTN-0002,LB,02_008177,FOLLOW-UP 3,61,CREAT,CREATININE,CHEMISTRY,189.6,mg/dL,,,189.6,189.6,mg/dL," "," ",,,,URINE,CENTRAL LAB,,FOLLOW-UP 3,17,2001,196
NIDA-CTN-0002,LB,02_008177,SCREENING,5,METH,METHAMPHETAMINE,DRUG SCREEN,NEGATIVE,,,,NEGATIVE," ",," "," ",,,,URINE,ACCUTEST,Y,"BASELINE, ANY DAY PRIOR TO FIRST DOSE",0,2001,1
NIDA-CTN-0002,LB,02_008177,ACTIVE,43,METH,METHAMPHETAMINE,DRUG SCREEN,POSITIVE,,,,POSITIVE," ",," "," ",,,,URINE,ACCUTEST,,STUDY DAY 14,14,2001,14
NIDA-CTN-0002,LB,02_008177,SCREENING,6,METHADON,METHADONE,DRUG SCREEN,NEGATIVE,,,,NEGATIVE," ",," "," ",,,,URINE,ACCUTEST,Y,"BASELINE, ANY DAY PRIOR TO FIRST DOSE",0,2001,1
NIDA-CTN-0002,LB,02_008177,SCREENING,15,METHADON,METHADONE,DRUG SCREEN,NEGATIVE,,,,NEGATIVE," ",," "," ",,,,URINE,CENTRAL LAB,Y,"BASELINE, ANY DAY PRIOR TO FIRST DOSE",0,2001,1
NIDA-CTN-0002,LB,02_008177,ACTIVE,22,METHADON,METHADONE,DRUG SCREEN,NEGATIVE,,,,NEGATIVE," ",," "," ",,,,URINE,CENTRAL LAB,,STUDY DAY 4,4,2001,4
NIDA-CTN-0002,LB,02_008177,ACTIVE,29,METHADON,METHADONE,DRUG SCREEN,NEGATIVE,,,,NEGATIVE," ",," "," ",,,,URINE,CENTRAL LAB,,STUDY DAY 8,8,2001,8
NIDA-CTN-0002,LB,02_008177,ACTIVE,36,METHADON,METHADONE,DRUG SCREEN,NEGATIVE,,,,NEGATIVE," ",," "," ",,,,URINE,CENTRAL LAB,,STUDY DAY 11,11,2001,11
NIDA-CTN-0002,LB,02_008177,ACTIVE,44,METHADON,METHADONE,DRUG SCREEN,NEGATIVE,,,,NEGATIVE," ",," "," ",,,,URINE,ACCUTEST,,STUDY DAY 14,14,2001,14
NIDA-CTN-0002,LB,02_008177,ACTIVE,53,METHADON,METHADONE,DRUG SCREEN,NEGATIVE,,,,NEGATIVE," ",," "," ",,,,URINE,CENTRAL LAB,,STUDY DAY 14,14,2001,14
NIDA-CTN-0002,LB,02_008177,FOLLOW-UP 3,62,METHADON,METHADONE,DRUG SCREEN,NEGATIVE,,,,NEGATIVE," ",," "," ",,,,URINE,CENTRAL LAB,,FOLLOW-UP 3,17,2001,196
NIDA-CTN-0002,LB,02_008177,SCREENING,7,MORPHINE,MORPHINE,DRUG SCREEN,POSITIVE,,,,POSITIVE," ",," "," ",,,,URINE,ACCUTEST,Y,"BASELINE, ANY DAY PRIOR TO FIRST DOSE",0,2001,1
NIDA-CTN-0002,LB,02_008177,ACTIVE,45,MORPHINE,MORPHINE,DRUG SCREEN,NEGATIVE,,,,NEGATIVE," ",," "," ",,,,URINE,ACCUTEST,,STUDY DAY 14,14,2001,14
NIDA-CTN-0002,LB,02_008177,FOLLOW-UP 1,56,NONE,NONE,DRUG SCREEN,,,,,," ",," "," ",,NOT DONE,PATIENT DID NOT ATTEND,URINE,CENTRAL LAB,,FOLLOW-UP 1,15,," "
NIDA-CTN-0002,LB,02_008177,FOLLOW-UP 2,57,NONE,NONE,DRUG SCREEN,,,,,," ",," "," ",,NOT DONE,PATIENT DID NOT ATTEND,URINE,CENTRAL LAB,,FOLLOW-UP 2,16,," "
NIDA-CTN-0002,LB,02_008177,SCREENING,16,OPIATE,OPIATE,DRUG SCREEN,POSITIVE,,,,POSITIVE," ",," "," ",,,,URINE,CENTRAL LAB,Y,"BASELINE, ANY DAY PRIOR TO FIRST DOSE",0,2001,1
NIDA-CTN-0002,LB,02_008177,ACTIVE,23,OPIATE,OPIATE,DRUG SCREEN,POSITIVE,,,,POSITIVE," ",," "," ",,,,URINE,CENTRAL LAB,,STUDY DAY 4,4,2001,4
NIDA-CTN-0002,LB,02_008177,ACTIVE,30,OPIATE,OPIATE,DRUG SCREEN,NEGATIVE,,,,NEGATIVE," ",," "," ",,,,URINE,CENTRAL LAB,,STUDY DAY 8,8,2001,8
NIDA-CTN-0002,LB,02_008177,ACTIVE,37,OPIATE,OPIATE,DRUG SCREEN,NEGATIVE,,,,NEGATIVE," ",," "," ",,,,URINE,CENTRAL LAB,,STUDY DAY 11,11,2001,11
NIDA-CTN-0002,LB,02_008177,ACTIVE,54,OPIATE,OPIATE,DRUG SCREEN,NEGATIVE,,,,NEGATIVE," ",," "," ",,,,URINE,CENTRAL LAB,,STUDY DAY 14,14,2001,14
NIDA-CTN-0002,LB,02_008177,FOLLOW-UP 3,63,OPIATE,OPIATE,DRUG SCREEN,POSITIVE,,,,POSITIVE," ",," "," ",,,,URINE,CENTRAL LAB,,FOLLOW-UP 3,17,2001,196
NIDA-CTN-0002,LB,02_008177,SCREENING,8,PCP,PCP,DRUG SCREEN,NEGATIVE,,,,NEGATIVE," ",," "," ",,,,URINE,ACCUTEST,Y,"BASELINE, ANY DAY PRIOR TO FIRST DOSE",0,2001,1
NIDA-CTN-0002,LB,02_008177,ACTIVE,46,PCP,PCP,DRUG SCREEN,NEGATIVE,,,,NEGATIVE," ",," "," ",,,,URINE,ACCUTEST,,STUDY DAY 14,14,2001,14
NIDA-CTN-0002,LB,02_008177,SCREENING,9,TCA,TCA,DRUG SCREEN,NEGATIVE,,,,NEGATIVE," ",," "," ",,,,URINE,ACCUTEST,Y,"BASELINE, ANY DAY PRIOR TO FIRST DOSE",0,2001,1
NIDA-CTN-0002,LB,02_008177,ACTIVE,47,TCA,TCA,DRUG SCREEN,NEGATIVE,,,,NEGATIVE," ",," "," ",,,,URINE,ACCUTEST,,STUDY DAY 14,14,2001,14
NIDA-CTN-0002,LB,02_008177,SCREENING,10,THC,THC,DRUG SCREEN,POSITIVE,,,,POSITIVE," ",," "," ",,,,URINE,ACCUTEST,Y,"BASELINE, ANY DAY PRIOR TO FIRST DOSE",0,2001,1
NIDA-CTN-0002,LB,02_008177,SCREENING,17,THC,THC,DRUG SCREEN,POSITIVE,,,,POSITIVE," ",," "," ",,,,URINE,CENTRAL LAB,Y,"BASELINE, ANY DAY PRIOR TO FIRST DOSE",0,2001,1
NIDA-CTN-0002,LB,02_008177,ACTIVE,24,THC,THC,DRUG SCREEN,POSITIVE,,,,POSITIVE," ",," "," ",,,,URINE,CENTRAL LAB,,STUDY DAY 4,4,2001,4
NIDA-CTN-0002,LB,02_008177,ACTIVE,31,THC,THC,DRUG SCREEN,POSITIVE,,,,POSITIVE," ",," "," ",,,,URINE,CENTRAL LAB,,STUDY DAY 8,8,2001,8
NIDA-CTN-0002,LB,02_008177,ACTIVE,38,THC,THC,DRUG SCREEN,POSITIVE,,,,POSITIVE," ",," "," ",,,,URINE,CENTRAL LAB,,STUDY DAY 11,11,2001,11
NIDA-CTN-0002,LB,02_008177,ACTIVE,48,THC,THC,DRUG SCREEN,POSITIVE,,,,POSITIVE," ",," "," ",,,,URINE,ACCUTEST,,STUDY DAY 14,14,2001,14
NIDA-CTN-0002,LB,02_008177,ACTIVE,55,THC,THC,DRUG SCREEN,POSITIVE,,,,POSITIVE," ",," "," ",,,,URINE,CENTRAL LAB,,STUDY DAY 14,14,2001,14
NIDA-CTN-0002,LB,02_008177,FOLLOW-UP 3,64,THC,THC,DRUG SCREEN,POSITIVE,,,,POSITIVE," ",," "," ",,,,URINE,CENTRAL LAB,,FOLLOW-UP 3,17,2001,196
NIDA-CTN-0002,LB,02_008479,SCREENING,1,AMPHET,AMPHETAMINES,DRUG SCREEN,NEGATIVE,,,,NEGATIVE," ",," "," ",,,,URINE,ACCUTEST,Y,"BASELINE, ANY DAY PRIOR TO FIRST DOSE",0,2001,1
NIDA-CTN-0002,LB,02_008479,SCREENING,11,AMPHET,AMPHETAMINES,DRUG SCREEN,NEGATIVE,,,,NEGATIVE," ",," "," ",,,,URINE,CENTRAL LAB,Y,"BASELINE, ANY DAY PRIOR TO FIRST DOSE",0,2001,1
NIDA-CTN-0002,LB,02_008479,ACTIVE,18,AMPHET,AMPHETAMINES,DRUG SCREEN,NEGATIVE,,,,NEGATIVE," ",," "," ",,,,URINE,CENTRAL LAB,,STUDY DAY 3,3,2001,3
NIDA-CTN-0002,LB,02_008479,ACTIVE,25,AMPHET,AMPHETAMINES,DRUG SCREEN,NEGATIVE,,,,NEGATIVE," ",," "," ",,,,URINE,CENTRAL LAB,,STUDY DAY 7,7,2001,7
NIDA-CTN-0002,LB,02_008479,ACTIVE,33,AMPHET,AMPHETAMINES,DRUG SCREEN,NEGATIVE,,,,NEGATIVE," ",," "," ",,,,URINE,ACCUTEST,,STUDY DAY 13,13,2001,13
NIDA-CTN-0002,LB,02_008479,ACTIVE,43,AMPHET,AMPHETAMINES,DRUG SCREEN,NEGATIVE,,,,NEGATIVE," ",," "," ",,,,URINE,CENTRAL LAB,,STUDY DAY 13,13,2001,13
NIDA-CTN-0002,LB,02_008479,SCREENING,2,BARBIT,BARBITURATES,DRUG SCREEN,NEGATIVE,,,,NEGATIVE," ",," "," ",,,,URINE,ACCUTEST,Y,"BASELINE, ANY DAY PRIOR TO FIRST DOSE",0,2001,1
NIDA-CTN-0002,LB,02_008479,ACTIVE,34,BARBIT,BARBITURATES,DRUG SCREEN,NEGATIVE,,,,NEGATIVE," ",," "," ",,,,URINE,ACCUTEST,,STUDY DAY 13,13,2001,13
NIDA-CTN-0002,LB,02_008479,SCREENING,3,BENZOD,BENZODIAZEPINES,DRUG SCREEN,NEGATIVE,,,,NEGATIVE," ",," "," ",,,,URINE,ACCUTEST,Y,"BASELINE, ANY DAY PRIOR TO FIRST DOSE",0,2001,1
NIDA-CTN-0002,LB,02_008479,SCREENING,12,BENZOD,BENZODIAZEPINES,DRUG SCREEN,NEGATIVE,,,,NEGATIVE," ",," "," ",,,,URINE,CENTRAL LAB,Y,"BASELINE, ANY DAY PRIOR TO FIRST DOSE",0,2001,1
NIDA-CTN-0002,LB,02_008479,ACTIVE,19,BENZOD,BENZODIAZEPINES,DRUG SCREEN,NEGATIVE,,,,NEGATIVE," ",," "," ",,,,URINE,CENTRAL LAB,,STUDY DAY 3,3,2001,3
NIDA-CTN-0002,LB,02_008479,ACTIVE,26,BENZOD,BENZODIAZEPINES,DRUG SCREEN,NEGATIVE,,,,NEGATIVE," ",," "," ",,,,URINE,CENTRAL LAB,,STUDY DAY 7,7,2001,7
NIDA-CTN-0002,LB,02_008479,ACTIVE,35,BENZOD,BENZODIAZEPINES,DRUG SCREEN,NEGATIVE,,,,NEGATIVE," ",," "," ",,,,URINE,ACCUTEST,,STUDY DAY 13,13,2001,13
NIDA-CTN-0002,LB,02_008479,ACTIVE,44,BENZOD,BENZODIAZEPINES,DRUG SCREEN,NEGATIVE,,,,NEGATIVE," ",," "," ",,,,URINE,CENTRAL LAB,,STUDY DAY 13,13,2001,13
NIDA-CTN-0002,LB,02_008479,SCREENING,4,COCAINE,COCAINE,DRUG SCREEN,NEGATIVE,,,,NEGATIVE," ",," "," ",,,,URINE,ACCUTEST,Y,"BASELINE, ANY DAY PRIOR TO FIRST DOSE",0,2001,1
NIDA-CTN-0002,LB,02_008479,SCREENING,13,COCAINE,COCAINE,DRUG SCREEN,NEGATIVE,,,,NEGATIVE," ",," "," ",,,,URINE,CENTRAL LAB,Y,"BASELINE, ANY DAY PRIOR TO FIRST DOSE",0,2001,1
NIDA-CTN-0002,LB,02_008479,ACTIVE,20,COCAINE,COCAINE,DRUG SCREEN,NEGATIVE,,,,NEGATIVE," ",," "," ",,,,URINE,CENTRAL LAB,,STUDY DAY 3,3,2001,3
NIDA-CTN-0002,LB,02_008479,ACTIVE,27,COCAINE,COCAINE,DRUG SCREEN,NEGATIVE,,,,NEGATIVE," ",," "," ",,,,URINE,CENTRAL LAB,,STUDY DAY 7,7,2001,7
NIDA-CTN-0002,LB,02_008479,ACTIVE,36,COCAINE,COCAINE,DRUG SCREEN,NEGATIVE,,,,NEGATIVE," ",," "," ",,,,URINE,ACCUTEST,,STUDY DAY 13,13,2001,13
NIDA-CTN-0002,LB,02_008479,ACTIVE,45,COCAINE,COCAINE,DRUG SCREEN,NEGATIVE,,,,NEGATIVE," ",," "," ",,,,URINE,CENTRAL LAB,,STUDY DAY 13,13,2001,13
NIDA-CTN-0002,LB,02_008479,SCREENING,14,CREAT,CREATININE,CHEMISTRY,113.4,mg/dL,,,113.4,113.4,mg/dL," "," ",,,,URINE,CENTRAL LAB,Y,"BASELINE, ANY DAY PRIOR TO FIRST DOSE",0,2001,1
NIDA-CTN-0002,LB,02_008479,ACTIVE,21,CREAT,CREATININE,CHEMISTRY,203.8,mg/dL,,,203.8,203.8,mg/dL," "," ",,,,URINE,CENTRAL LAB,,STUDY DAY 3,3,2001,3
NIDA-CTN-0002,LB,02_008479,ACTIVE,28,CREAT,CREATININE,CHEMISTRY,146.0,mg/dL,,,146.0,146,mg/dL," "," ",,,,URINE,CENTRAL LAB,,STUDY DAY 7,7,2001,7
NIDA-CTN-0002,LB,02_008479,ACTIVE,46,CREAT,CREATININE,CHEMISTRY,330.0,mg/dL,,,330.0,330,mg/dL," "," ",,,,URINE,CENTRAL LAB,,STUDY DAY 13,13,2001,13
NIDA-CTN-0002,LB,02_008479,SCREENING,5,METH,METHAMPHETAMINE,DRUG SCREEN,NEGATIVE,,,,NEGATIVE," ",," "," ",,,,URINE,ACCUTEST,Y,"BASELINE, ANY DAY PRIOR TO FIRST DOSE",0,2001,1
NIDA-CTN-0002,LB,02_008479,ACTIVE,37,METH,METHAMPHETAMINE,DRUG SCREEN,NEGATIVE,,,,NEGATIVE," ",," "," ",,,,URINE,ACCUTEST,,STUDY DAY 13,13,2001,13
NIDA-CTN-0002,LB,02_008479,SCREENING,6,METHADON,METHADONE,DRUG SCREEN,NEGATIVE,,,,NEGATIVE," ",," "," ",,,,URINE,ACCUTEST,Y,"BASELINE, ANY DAY PRIOR TO FIRST DOSE",0,2001,1
NIDA-CTN-0002,LB,02_008479,SCREENING,15,METHADON,METHADONE,DRUG SCREEN,NEGATIVE,,,,NEGATIVE," ",," "," ",,,,URINE,CENTRAL LAB,Y,"BASELINE, ANY DAY PRIOR TO FIRST DOSE",0,2001,1
NIDA-CTN-0002,LB,02_008479,ACTIVE,22,METHADON,METHADONE,DRUG SCREEN,NEGATIVE,,,,NEGATIVE," ",," "," ",,,,URINE,CENTRAL LAB,,STUDY DAY 3,3,2001,3
NIDA-CTN-0002,LB,02_008479,ACTIVE,29,METHADON,METHADONE,DRUG SCREEN,NEGATIVE,,,,NEGATIVE," ",," "," ",,,,URINE,CENTRAL LAB,,STUDY DAY 7,7,2001,7
NIDA-CTN-0002,LB,02_008479,ACTIVE,38,METHADON,METHADONE,DRUG SCREEN,NEGATIVE,,,,NEGATIVE," ",," "," ",,,,URINE,ACCUTEST,,STUDY DAY 13,13,2001,13
NIDA-CTN-0002,LB,02_008479,ACTIVE,47,METHADON,METHADONE,DRUG SCREEN,NEGATIVE,,,,NEGATIVE," ",," "," ",,,,URINE,CENTRAL LAB,,STUDY DAY 13,13,2001,13
NIDA-CTN-0002,LB,02_008479,SCREENING,7,MORPHINE,MORPHINE,DRUG SCREEN,NEGATIVE,,,,NEGATIVE," ",," "," ",,,,URINE,ACCUTEST,Y,"BASELINE, ANY DAY PRIOR TO FIRST DOSE",0,2001,1
NIDA-CTN-0002,LB,02_008479,ACTIVE,39,MORPHINE,MORPHINE,DRUG SCREEN,NEGATIVE,,,,NEGATIVE," ",," "," ",,,,URINE,ACCUTEST,,STUDY DAY 13,13,2001,13
NIDA-CTN-0002,LB,02_008479,ACTIVE,32,NONE,NONE,DRUG SCREEN,,,,,," ",," "," ",,,,URINE,CENTRAL LAB,,STUDY DAY 10,10,2001,10
NIDA-CTN-0002,LB,02_008479,FOLLOW-UP 1,50,NONE,NONE,DRUG SCREEN,,,,,," ",," "," ",,NOT DONE,PATIENT DID NOT ATTEND,URINE,CENTRAL LAB,,FOLLOW-UP 1,15,," "
NIDA-CTN-0002,LB,02_008479,FOLLOW-UP 2,51,NONE,NONE,DRUG SCREEN,,,,,," ",," "," ",,NOT DONE,PATIENT DID NOT ATTEND,URINE,CENTRAL LAB,,FOLLOW-UP 2,16,," "
NIDA-CTN-0002,LB,02_008479,FOLLOW-UP 3,52,NONE,NONE,DRUG SCREEN,,,,,," ",," "," ",,NOT DONE,PATIENT DID NOT ATTEND,URINE,CENTRAL LAB,,FOLLOW-UP 3,17,," "
NIDA-CTN-0002,LB,02_008479,SCREENING,16,OPIATE,OPIATE,DRUG SCREEN,POSITIVE,,,,POSITIVE," ",," "," ",,,,URINE,CENTRAL LAB,Y,"BASELINE, ANY DAY PRIOR TO FIRST DOSE",0,2001,1
NIDA-CTN-0002,LB,02_008479,ACTIVE,23,OPIATE,OPIATE,DRUG SCREEN,POSITIVE,,,,POSITIVE," ",," "," ",,,,URINE,CENTRAL LAB,,STUDY DAY 3,3,2001,3
NIDA-CTN-0002,LB,02_008479,ACTIVE,30,OPIATE,OPIATE,DRUG SCREEN,NEGATIVE,,,,NEGATIVE," ",," "," ",,,,URINE,CENTRAL LAB,,STUDY DAY 7,7,2001,7
NIDA-CTN-0002,LB,02_008479,ACTIVE,48,OPIATE,OPIATE,DRUG SCREEN,NEGATIVE,,,,NEGATIVE," ",," "," ",,,,URINE,CENTRAL LAB,,STUDY DAY 13,13,2001,13
NIDA-CTN-0002,LB,02_008479,SCREENING,8,PCP,PCP,DRUG SCREEN,POSITIVE,,,,POSITIVE," ",," "," ",,,,URINE,ACCUTEST,Y,"BASELINE, ANY DAY PRIOR TO FIRST DOSE",0,2001,1
NIDA-CTN-0002,LB,02_008479,ACTIVE,40,PCP,PCP,DRUG SCREEN,NEGATIVE,,,,NEGATIVE," ",," "," ",,,,URINE,ACCUTEST,,STUDY DAY 13,13,2001,13
NIDA-CTN-0002,LB,02_008479,SCREENING,9,TCA,TCA,DRUG SCREEN,NEGATIVE,,,,NEGATIVE," ",," "," ",,,,URINE,ACCUTEST,Y,"BASELINE, ANY DAY PRIOR TO FIRST DOSE",0,2001,1
NIDA-CTN-0002,LB,02_008479,ACTIVE,41,TCA,TCA,DRUG SCREEN,NEGATIVE,,,,NEGATIVE," ",," "," ",,,,URINE,ACCUTEST,,STUDY DAY 13,13,2001,13
NIDA-CTN-0002,LB,02_008479,SCREENING,10,THC,THC,DRUG SCREEN,NEGATIVE,,,,NEGATIVE," ",," "," ",,,,URINE,ACCUTEST,Y,"BASELINE, ANY DAY PRIOR TO FIRST DOSE",0,2001,1
NIDA-CTN-0002,LB,02_008479,SCREENING,17,THC,THC,DRUG SCREEN,NEGATIVE,,,,NEGATIVE," ",," "," ",,,,URINE,CENTRAL LAB,Y,"BASELINE, ANY DAY PRIOR TO FIRST DOSE",0,2001,1
NIDA-CTN-0002,LB,02_008479,ACTIVE,24,THC,THC,DRUG SCREEN,NEGATIVE,,,,NEGATIVE," ",," "," ",,,,URINE,CENTRAL LAB,,STUDY DAY 3,3,2001,3
NIDA-CTN-0002,LB,02_008479,ACTIVE,31,THC,THC,DRUG SCREEN,NEGATIVE,,,,NEGATIVE," ",," "," ",,,,URINE,CENTRAL LAB,,STUDY DAY 7,7,2001,7
NIDA-CTN-0002,LB,02_008479,ACTIVE,42,THC,THC,DRUG SCREEN,NEGATIVE,,,,NEGATIVE," ",," "," ",,,,URINE,ACCUTEST,,STUDY DAY 13,13,2001,13
NIDA-CTN-0002,LB,02_008479,ACTIVE,49,THC,THC,DRUG SCREEN,NEGATIVE,,,,NEGATIVE," ",," "," ",,,,URINE,CENTRAL LAB,,STUDY DAY 13,13,2001,13
NIDA-CTN-0002,LB,02_008499,SCREENING,2,AMPHET,AMPHETAMINES,DRUG SCREEN,NEGATIVE,,,,NEGATIVE," ",," "," ",,,,URINE,ACCUTEST,Y,"BASELINE, ANY DAY PRIOR TO FIRST DOSE",0,2001,1
NIDA-CTN-0002,LB,02_008499,SCREENING,12,AMPHET,AMPHETAMINES,DRUG SCREEN,NEGATIVE,,,,NEGATIVE," ",," "," ",,,,URINE,CENTRAL LAB,Y,"BASELINE, ANY DAY PRIOR TO FIRST DOSE",0,2001,1
NIDA-CTN-0002,LB,02_008499,ACTIVE,19,AMPHET,AMPHETAMINES,DRUG SCREEN,NEGATIVE,,,,NEGATIVE," ",," "," ",,,,URINE,CENTRAL LAB,,STUDY DAY 3,3,2001,3
NIDA-CTN-0002,LB,02_008499,ACTIVE,26,AMPHET,AMPHETAMINES,DRUG SCREEN,NEGATIVE,,,,NEGATIVE," ",," "," ",,,,URINE,CENTRAL LAB,,STUDY DAY 7,7,2001,7
NIDA-CTN-0002,LB,02_008499,ACTIVE,33,AMPHET,AMPHETAMINES,DRUG SCREEN,NEGATIVE,,,,NEGATIVE," ",," "," ",,,,URINE,CENTRAL LAB,,STUDY DAY 10,10,2001,10
NIDA-CTN-0002,LB,02_008499,ACTIVE,40,AMPHET,AMPHETAMINES,DRUG SCREEN,NEGATIVE,,,,NEGATIVE," ",," "," ",,,,URINE,ACCUTEST,,STUDY DAY 14,14,2001,14
NIDA-CTN-0002,LB,02_008499,ACTIVE,50,AMPHET,AMPHETAMINES,DRUG SCREEN,NEGATIVE,,,,NEGATIVE," ",," "," ",,,,URINE,CENTRAL LAB,,STUDY DAY 14,14,2001,14
NIDA-CTN-0002,LB,02_008499,FOLLOW-UP 1,57,AMPHET,AMPHETAMINES,DRUG SCREEN,NEGATIVE,,,,NEGATIVE," ",," "," ",,,,URINE,CENTRAL LAB,,FOLLOW-UP 1,15,2001,35
NIDA-CTN-0002,LB,02_008499,FOLLOW-UP 3,64,AMPHET,AMPHETAMINES,DRUG SCREEN,NEGATIVE,,,,NEGATIVE," ",," "," ",,,,URINE,CENTRAL LAB,,FOLLOW-UP 3,17,2001,209
NIDA-CTN-0002,LB,02_008499,SCREENING,3,BARBIT,BARBITURATES,DRUG SCREEN,NEGATIVE,,,,NEGATIVE," ",," "," ",,,,URINE,ACCUTEST,Y,"BASELINE, ANY DAY PRIOR TO FIRST DOSE",0,2001,1
NIDA-CTN-0002,LB,02_008499,ACTIVE,41,BARBIT,BARBITURATES,DRUG SCREEN,NEGATIVE,,,,NEGATIVE," ",," "," ",,,,URINE,ACCUTEST,,STUDY DAY 14,14,2001,14
NIDA-CTN-0002,LB,02_008499,SCREENING,4,BENZOD,BENZODIAZEPINES,DRUG SCREEN,NEGATIVE,,,,NEGATIVE," ",," "," ",,,,URINE,ACCUTEST,Y,"BASELINE, ANY DAY PRIOR TO FIRST DOSE",0,2001,1
NIDA-CTN-0002,LB,02_008499,SCREENING,13,BENZOD,BENZODIAZEPINES,DRUG SCREEN,NEGATIVE,,,,NEGATIVE," ",," "," ",,,,URINE,CENTRAL LAB,Y,"BASELINE, ANY DAY PRIOR TO FIRST DOSE",0,2001,1
NIDA-CTN-0002,LB,02_008499,ACTIVE,20,BENZOD,BENZODIAZEPINES,DRUG SCREEN,NEGATIVE,,,,NEGATIVE," ",," "," ",,,,URINE,CENTRAL LAB,,STUDY DAY 3,3,2001,3
NIDA-CTN-0002,LB,02_008499,ACTIVE,27,BENZOD,BENZODIAZEPINES,DRUG SCREEN,NEGATIVE,,,,NEGATIVE," ",," "," ",,,,URINE,CENTRAL LAB,,STUDY DAY 7,7,2001,7
NIDA-CTN-0002,LB,02_008499,ACTIVE,34,BENZOD,BENZODIAZEPINES,DRUG SCREEN,NEGATIVE,,,,NEGATIVE," ",," "," ",,,,URINE,CENTRAL LAB,,STUDY DAY 10,10,2001,10
NIDA-CTN-0002,LB,02_008499,ACTIVE,42,BENZOD,BENZODIAZEPINES,DRUG SCREEN,NEGATIVE,,,,NEGATIVE," ",," "," ",,,,URINE,ACCUTEST,,STUDY DAY 14,14,2001,14
NIDA-CTN-0002,LB,02_008499,ACTIVE,51,BENZOD,BENZODIAZEPINES,DRUG SCREEN,NEGATIVE,,,,NEGATIVE," ",," "," ",,,,URINE,CENTRAL LAB,,STUDY DAY 14,14,2001,14
NIDA-CTN-0002,LB,02_008499,FOLLOW-UP 1,58,BENZOD,BENZODIAZEPINES,DRUG SCREEN,NEGATIVE,,,,NEGATIVE," ",," "," ",,,,URINE,CENTRAL LAB,,FOLLOW-UP 1,15,2001,35
NIDA-CTN-0002,LB,02_008499,FOLLOW-UP 3,65,BENZOD,BENZODIAZEPINES,DRUG SCREEN,NEGATIVE,,,,NEGATIVE," ",," "," ",,,,URINE,CENTRAL LAB,,FOLLOW-UP 3,17,2001,209
NIDA-CTN-0002,LB,02_008499,SCREENING,5,COCAINE,COCAINE,DRUG SCREEN,POSITIVE,,,,POSITIVE," ",," "," ",,,,URINE,ACCUTEST,Y,"BASELINE, ANY DAY PRIOR TO FIRST DOSE",0,2001,1
NIDA-CTN-0002,LB,02_008499,SCREENING,14,COCAINE,COCAINE,DRUG SCREEN,POSITIVE,,,,POSITIVE," ",," "," ",,,,URINE,CENTRAL LAB,Y,"BASELINE, ANY DAY PRIOR TO FIRST DOSE",0,2001,1
NIDA-CTN-0002,LB,02_008499,ACTIVE,21,COCAINE,COCAINE,DRUG SCREEN,POSITIVE,,,,POSITIVE," ",," "," ",,,,URINE,CENTRAL LAB,,STUDY DAY 3,3,2001,3
NIDA-CTN-0002,LB,02_008499,ACTIVE,28,COCAINE,COCAINE,DRUG SCREEN,NEGATIVE,,,,NEGATIVE," ",," "," ",,,,URINE,CENTRAL LAB,,STUDY DAY 7,7,2001,7
NIDA-CTN-0002,LB,02_008499,ACTIVE,35,COCAINE,COCAINE,DRUG SCREEN,NEGATIVE,,,,NEGATIVE," ",," "," ",,,,URINE,CENTRAL LAB,,STUDY DAY 10,10,2001,10
NIDA-CTN-0002,LB,02_008499,ACTIVE,43,COCAINE,COCAINE,DRUG SCREEN,NEGATIVE,,,,NEGATIVE," ",," "," ",,,,URINE,ACCUTEST,,STUDY DAY 14,14,2001,14
NIDA-CTN-0002,LB,02_008499,ACTIVE,52,COCAINE,COCAINE,DRUG SCREEN,NEGATIVE,,,,NEGATIVE," ",," "," ",,,,URINE,CENTRAL LAB,,STUDY DAY 14,14,2001,14
NIDA-CTN-0002,LB,02_008499,FOLLOW-UP 1,59,COCAINE,COCAINE,DRUG SCREEN,NEGATIVE,,,,NEGATIVE," ",," "," ",,,,URINE,CENTRAL LAB,,FOLLOW-UP 1,15,2001,35
NIDA-CTN-0002,LB,02_008499,FOLLOW-UP 3,66,COCAINE,COCAINE,DRUG SCREEN,NEGATIVE,,,,NEGATIVE," ",," "," ",,,,URINE,CENTRAL LAB,,FOLLOW-UP 3,17,2001,209
NIDA-CTN-0002,LB,02_008499,SCREENING,15,CREAT,CREATININE,CHEMISTRY,113.1,mg/dL,,,113.1,113.1,mg/dL," "," ",,,,URINE,CENTRAL LAB,Y,"BASELINE, ANY DAY PRIOR TO FIRST DOSE",0,2001,1
NIDA-CTN-0002,LB,02_008499,ACTIVE,22,CREAT,CREATININE,CHEMISTRY,128.0,mg/dL,,,128.0,128,mg/dL," "," ",,,,URINE,CENTRAL LAB,,STUDY DAY 3,3,2001,3
NIDA-CTN-0002,LB,02_008499,ACTIVE,29,CREAT,CREATININE,CHEMISTRY,76.3,mg/dL,,,76.3,76.3,mg/dL," "," ",,,,URINE,CENTRAL LAB,,STUDY DAY 7,7,2001,7
NIDA-CTN-0002,LB,02_008499,ACTIVE,36,CREAT,CREATININE,CHEMISTRY,47.0,mg/dL,,,47.0,47,mg/dL," "," ",,,,URINE,CENTRAL LAB,,STUDY DAY 10,10,2001,10
NIDA-CTN-0002,LB,02_008499,ACTIVE,53,CREAT,CREATININE,CHEMISTRY,151.3,mg/dL,,,151.3,151.3,mg/dL," "," ",,,,URINE,CENTRAL LAB,,STUDY DAY 14,14,2001,14
NIDA-CTN-0002,LB,02_008499,FOLLOW-UP 1,60,CREAT,CREATININE,CHEMISTRY,84.0,mg/dL,,,84.0,84,mg/dL," "," ",,,,URINE,CENTRAL LAB,,FOLLOW-UP 1,15,2001,35
NIDA-CTN-0002,LB,02_008499,FOLLOW-UP 3,67,CREAT,CREATININE,CHEMISTRY,129.1,mg/dL,,,129.1,129.1,mg/dL," "," ",,,,URINE,CENTRAL LAB,,FOLLOW-UP 3,17,2001,209
NIDA-CTN-0002,LB,02_008499,SCREENING,6,METH,METHAMPHETAMINE,DRUG SCREEN,NEGATIVE,,,,NEGATIVE," ",," "," ",,,,URINE,ACCUTEST,Y,"BASELINE, ANY DAY PRIOR TO FIRST DOSE",0,2001,1
NIDA-CTN-0002,LB,02_008499,ACTIVE,44,METH,METHAMPHETAMINE,DRUG SCREEN,NEGATIVE,,,,NEGATIVE," ",," "," ",,,,URINE,ACCUTEST,,STUDY DAY 14,14,2001,14
NIDA-CTN-0002,LB,02_008499,SCREENING,7,METHADON,METHADONE,DRUG SCREEN,NEGATIVE,,,,NEGATIVE," ",," "," ",,,,URINE,ACCUTEST,Y,"BASELINE, ANY DAY PRIOR TO FIRST DOSE",0,2001,1
NIDA-CTN-0002,LB,02_008499,SCREENING,16,METHADON,METHADONE,DRUG SCREEN,NEGATIVE,,,,NEGATIVE," ",," "," ",,,,URINE,CENTRAL LAB,Y,"BASELINE, ANY DAY PRIOR TO FIRST DOSE",0,2001,1
NIDA-CTN-0002,LB,02_008499,ACTIVE,23,METHADON,METHADONE,DRUG SCREEN,NEGATIVE,,,,NEGATIVE," ",," "," ",,,,URINE,CENTRAL LAB,,STUDY DAY 3,3,2001,3
NIDA-CTN-0002,LB,02_008499,ACTIVE,30,METHADON,METHADONE,DRUG SCREEN,NEGATIVE,,,,NEGATIVE," ",," "," ",,,,URINE,CENTRAL LAB,,STUDY DAY 7,7,2001,7
NIDA-CTN-0002,LB,02_008499,ACTIVE,37,METHADON,METHADONE,DRUG SCREEN,NEGATIVE,,,,NEGATIVE," ",," "," ",,,,URINE,CENTRAL LAB,,STUDY DAY 10,10,2001,10
NIDA-CTN-0002,LB,02_008499,ACTIVE,45,METHADON,METHADONE,DRUG SCREEN,NEGATIVE,,,,NEGATIVE," ",," "," ",,,,URINE,ACCUTEST,,STUDY DAY 14,14,2001,14
NIDA-CTN-0002,LB,02_008499,ACTIVE,54,METHADON,METHADONE,DRUG SCREEN,NEGATIVE,,,,NEGATIVE," ",," "," ",,,,URINE,CENTRAL LAB,,STUDY DAY 14,14,2001,14
NIDA-CTN-0002,LB,02_008499,FOLLOW-UP 1,61,METHADON,METHADONE,DRUG SCREEN,NEGATIVE,,,,NEGATIVE," ",," "," ",,,,URINE,CENTRAL LAB,,FOLLOW-UP 1,15,2001,35
NIDA-CTN-0002,LB,02_008499,FOLLOW-UP 3,68,METHADON,METHADONE,DRUG SCREEN,NEGATIVE,,,,NEGATIVE," ",," "," ",,,,URINE,CENTRAL LAB,,FOLLOW-UP 3,17,2001,209
NIDA-CTN-0002,LB,02_008499,SCREENING,8,MORPHINE,MORPHINE,DRUG SCREEN,POSITIVE,,,,POSITIVE," ",," "," ",,,,URINE,ACCUTEST,Y,"BASELINE, ANY DAY PRIOR TO FIRST DOSE",0,2001,1
NIDA-CTN-0002,LB,02_008499,ACTIVE,46,MORPHINE,MORPHINE,DRUG SCREEN,POSITIVE,,,,POSITIVE," ",," "," ",,,,URINE,ACCUTEST,,STUDY DAY 14,14,2001,14
NIDA-CTN-0002,LB,02_008499,FOLLOW-UP,1,NONE,NONE,DRUG SCREEN,,,,,," ",," "," ",,NOT DONE,PATIENT DID NOT ATTEND,URINE,CENTRAL LAB,,UNKNOWN,-99,," "
NIDA-CTN-0002,LB,02_008499,SCREENING,17,OPIATE,OPIATE,DRUG SCREEN,POSITIVE,,,,POSITIVE," ",," "," ",,,,URINE,CENTRAL LAB,Y,"BASELINE, ANY DAY PRIOR TO FIRST DOSE",0,2001,1
NIDA-CTN-0002,LB,02_008499,ACTIVE,24,OPIATE,OPIATE,DRUG SCREEN,POSITIVE,,,,POSITIVE," ",," "," ",,,,URINE,CENTRAL LAB,,STUDY DAY 3,3,2001,3
NIDA-CTN-0002,LB,02_008499,ACTIVE,31,OPIATE,OPIATE,DRUG SCREEN,POSITIVE,,,,POSITIVE," ",," "," ",,,,URINE,CENTRAL LAB,,STUDY DAY 7,7,2001,7
NIDA-CTN-0002,LB,02_008499,ACTIVE,38,OPIATE,OPIATE,DRUG SCREEN,POSITIVE,,,,POSITIVE," ",," "," ",,,,URINE,CENTRAL LAB,,STUDY DAY 10,10,2001,10
NIDA-CTN-0002,LB,02_008499,ACTIVE,55,OPIATE,OPIATE,DRUG SCREEN,POSITIVE,,,,POSITIVE," ",," "," ",,,,URINE,CENTRAL LAB,,STUDY DAY 14,14,2001,14
NIDA-CTN-0002,LB,02_008499,FOLLOW-UP 1,62,OPIATE,OPIATE,DRUG SCREEN,POSITIVE,,,,POSITIVE," ",," "," ",,,,URINE,CENTRAL LAB,,FOLLOW-UP 1,15,2001,35
NIDA-CTN-0002,LB,02_008499,FOLLOW-UP 3,69,OPIATE,OPIATE,DRUG SCREEN,NEGATIVE,,,,NEGATIVE," ",," "," ",,,,URINE,CENTRAL LAB,,FOLLOW-UP 3,17,2001,209
NIDA-CTN-0002,LB,02_008499,SCREENING,9,PCP,PCP,DRUG SCREEN,NEGATIVE,,,,NEGATIVE," ",," "," ",,,,URINE,ACCUTEST,Y,"BASELINE, ANY DAY PRIOR TO FIRST DOSE",0,2001,1
NIDA-CTN-0002,LB,02_008499,ACTIVE,47,PCP,PCP,DRUG SCREEN,NEGATIVE,,,,NEGATIVE," ",," "," ",,,,URINE,ACCUTEST,,STUDY DAY 14,14,2001,14
NIDA-CTN-0002,LB,02_008499,SCREENING,10,TCA,TCA,DRUG SCREEN,NEGATIVE,,,,NEGATIVE," ",," "," ",,,,URINE,ACCUTEST,Y,"BASELINE, ANY DAY PRIOR TO FIRST DOSE",0,2001,1
NIDA-CTN-0002,LB,02_008499,ACTIVE,48,TCA,TCA,DRUG SCREEN,NEGATIVE,,,,NEGATIVE," ",," "," ",,,,URINE,ACCUTEST,,STUDY DAY 14,14,2001,14
NIDA-CTN-0002,LB,02_008499,SCREENING,11,THC,THC,DRUG SCREEN,NEGATIVE,,,,NEGATIVE," ",," "," ",,,,URINE,ACCUTEST,Y,"BASELINE, ANY DAY PRIOR TO FIRST DOSE",0,2001,1
NIDA-CTN-0002,LB,02_008499,SCREENING,18,THC,THC,DRUG SCREEN,POSITIVE,,,,POSITIVE," ",," "," ",,,,URINE,CENTRAL LAB,Y,"BASELINE, ANY DAY PRIOR TO FIRST DOSE",0,2001,1
NIDA-CTN-0002,LB,02_008499,ACTIVE,25,THC,THC,DRUG SCREEN,POSITIVE,,,,POSITIVE," ",," "," ",,,,URINE,CENTRAL LAB,,STUDY DAY 3,3,2001,3
NIDA-CTN-0002,LB,02_008499,ACTIVE,32,THC,THC,DRUG SCREEN,POSITIVE,,,,POSITIVE," ",," "," ",,,,URINE,CENTRAL LAB,,STUDY DAY 7,7,2001,7
NIDA-CTN-0002,LB,02_008499,ACTIVE,39,THC,THC,DRUG SCREEN,NEGATIVE,,,,NEGATIVE," ",," "," ",,,,URINE,CENTRAL LAB,,STUDY DAY 10,10,2001,10
NIDA-CTN-0002,LB,02_008499,ACTIVE,49,THC,THC,DRUG SCREEN,NEGATIVE,,,,NEGATIVE," ",," "," ",,,,URINE,ACCUTEST,,STUDY DAY 14,14,2001,14
NIDA-CTN-0002,LB,02_008499,ACTIVE,56,THC,THC,DRUG SCREEN,POSITIVE,,,,POSITIVE," ",," "," ",,,,URINE,CENTRAL LAB,,STUDY DAY 14,14,2001,14
NIDA-CTN-0002,LB,02_008499,FOLLOW-UP 1,63,THC,THC,DRUG SCREEN,POSITIVE,,,,POSITIVE," ",," "," ",,,,URINE,CENTRAL LAB,,FOLLOW-UP 1,15,2001,35
NIDA-CTN-0002,LB,02_008499,FOLLOW-UP 3,70,THC,THC,DRUG SCREEN,NEGATIVE,,,,NEGATIVE," ",," "," ",,,,URINE,CENTRAL LAB,,FOLLOW-UP 3,17,2001,209
NIDA-CTN-0002,LB,02_008740,SCREENING,2,AMPHET,AMPHETAMINES,DRUG SCREEN,NEGATIVE,,,,NEGATIVE," ",," "," ",,,,URINE,ACCUTEST,Y,"BASELINE, ANY DAY PRIOR TO FIRST DOSE",0,2001,1
NIDA-CTN-0002,LB,02_008740,SCREENING,12,AMPHET,AMPHETAMINES,DRUG SCREEN,NEGATIVE,,,,NEGATIVE," ",," "," ",,,,URINE,CENTRAL LAB,Y,"BASELINE, ANY DAY PRIOR TO FIRST DOSE",0,2001,1
NIDA-CTN-0002,LB,02_008740,FOLLOW-UP 1,23,AMPHET,AMPHETAMINES,DRUG SCREEN,NEGATIVE,,,,NEGATIVE," ",," "," ",,,,URINE,CENTRAL LAB,,FOLLOW-UP 1,15,2001,35
NIDA-CTN-0002,LB,02_008740,FOLLOW-UP 2,30,AMPHET,AMPHETAMINES,DRUG SCREEN,NEGATIVE,,,,NEGATIVE," ",," "," ",,,,URINE,CENTRAL LAB,,FOLLOW-UP 2,16,2002,91
NIDA-CTN-0002,LB,02_008740,FOLLOW-UP 3,37,AMPHET,AMPHETAMINES,DRUG SCREEN,NEGATIVE,,,,NEGATIVE," ",," "," ",,,,URINE,CENTRAL LAB,,FOLLOW-UP 3,17,2002,189
NIDA-CTN-0002,LB,02_008740,SCREENING,3,BARBIT,BARBITURATES,DRUG SCREEN,NEGATIVE,,,,NEGATIVE," ",," "," ",,,,URINE,ACCUTEST,Y,"BASELINE, ANY DAY PRIOR TO FIRST DOSE",0,2001,1
NIDA-CTN-0002,LB,02_008740,SCREENING,4,BENZOD,BENZODIAZEPINES,DRUG SCREEN,POSITIVE,,,,POSITIVE," ",," "," ",,,,URINE,ACCUTEST,Y,"BASELINE, ANY DAY PRIOR TO FIRST DOSE",0,2001,1
NIDA-CTN-0002,LB,02_008740,SCREENING,13,BENZOD,BENZODIAZEPINES,DRUG SCREEN,NEGATIVE,,,,NEGATIVE," ",," "," ",,,,URINE,CENTRAL LAB,Y,"BASELINE, ANY DAY PRIOR TO FIRST DOSE",0,2001,1
NIDA-CTN-0002,LB,02_008740,FOLLOW-UP 1,24,BENZOD,BENZODIAZEPINES,DRUG SCREEN,NEGATIVE,,,,NEGATIVE," ",," "," ",,,,URINE,CENTRAL LAB,,FOLLOW-UP 1,15,2001,35
NIDA-CTN-0002,LB,02_008740,FOLLOW-UP 2,31,BENZOD,BENZODIAZEPINES,DRUG SCREEN,NEGATIVE,,,,NEGATIVE," ",," "," ",,,,URINE,CENTRAL LAB,,FOLLOW-UP 2,16,2002,91
NIDA-CTN-0002,LB,02_008740,FOLLOW-UP 3,38,BENZOD,BENZODIAZEPINES,DRUG SCREEN,NEGATIVE,,,,NEGATIVE," ",," "," ",,,,URINE,CENTRAL LAB,,FOLLOW-UP 3,17,2002,189
NIDA-CTN-0002,LB,02_008740,SCREENING,5,COCAINE,COCAINE,DRUG SCREEN,POSITIVE,,,,POSITIVE," ",," "," ",,,,URINE,ACCUTEST,Y,"BASELINE, ANY DAY PRIOR TO FIRST DOSE",0,2001,1
NIDA-CTN-0002,LB,02_008740,SCREENING,14,COCAINE,COCAINE,DRUG SCREEN,POSITIVE,,,,POSITIVE," ",," "," ",,,,URINE,CENTRAL LAB,Y,"BASELINE, ANY DAY PRIOR TO FIRST DOSE",0,2001,1
NIDA-CTN-0002,LB,02_008740,FOLLOW-UP 1,25,COCAINE,COCAINE,DRUG SCREEN,POSITIVE,,,,POSITIVE," ",," "," ",,,,URINE,CENTRAL LAB,,FOLLOW-UP 1,15,2001,35
NIDA-CTN-0002,LB,02_008740,FOLLOW-UP 2,32,COCAINE,COCAINE,DRUG SCREEN,POSITIVE,,,,POSITIVE," ",," "," ",,,,URINE,CENTRAL LAB,,FOLLOW-UP 2,16,2002,91
NIDA-CTN-0002,LB,02_008740,FOLLOW-UP 3,39,COCAINE,COCAINE,DRUG SCREEN,POSITIVE,,,,POSITIVE," ",," "," ",,,,URINE,CENTRAL LAB,,FOLLOW-UP 3,17,2002,189
NIDA-CTN-0002,LB,02_008740,SCREENING,15,CREAT,CREATININE,CHEMISTRY,168.2,mg/dL,,,168.2,168.2,mg/dL," "," ",,,,URINE,CENTRAL LAB,Y,"BASELINE, ANY DAY PRIOR TO FIRST DOSE",0,2001,1
NIDA-CTN-0002,LB,02_008740,FOLLOW-UP 1,26,CREAT,CREATININE,CHEMISTRY,164.1,mg/dL,,,164.1,164.1,mg/dL," "," ",,,,URINE,CENTRAL LAB,,FOLLOW-UP 1,15,2001,35
NIDA-CTN-0002,LB,02_008740,FOLLOW-UP 2,33,CREAT,CREATININE,CHEMISTRY,111.5,mg/dL,,,111.5,111.5,mg/dL," "," ",,,,URINE,CENTRAL LAB,,FOLLOW-UP 2,16,2002,91
NIDA-CTN-0002,LB,02_008740,FOLLOW-UP 3,40,CREAT,CREATININE,CHEMISTRY,268.2,mg/dL,,,268.2,268.2,mg/dL," "," ",,,,URINE,CENTRAL LAB,,FOLLOW-UP 3,17,2002,189
NIDA-CTN-0002,LB,02_008740,SCREENING,6,METH,METHAMPHETAMINE,DRUG SCREEN,NEGATIVE,,,,NEGATIVE," ",," "," ",,,,URINE,ACCUTEST,Y,"BASELINE, ANY DAY PRIOR TO FIRST DOSE",0,2001,1
NIDA-CTN-0002,LB,02_008740,SCREENING,7,METHADON,METHADONE,DRUG SCREEN,NEGATIVE,,,,NEGATIVE," ",," "," ",,,,URINE,ACCUTEST,Y,"BASELINE, ANY DAY PRIOR TO FIRST DOSE",0,2001,1
NIDA-CTN-0002,LB,02_008740,SCREENING,16,METHADON,METHADONE,DRUG SCREEN,NEGATIVE,,,,NEGATIVE," ",," "," ",,,,URINE,CENTRAL LAB,Y,"BASELINE, ANY DAY PRIOR TO FIRST DOSE",0,2001,1
NIDA-CTN-0002,LB,02_008740,FOLLOW-UP 1,27,METHADON,METHADONE,DRUG SCREEN,NEGATIVE,,,,NEGATIVE," ",," "," ",,,,URINE,CENTRAL LAB,,FOLLOW-UP 1,15,2001,35
NIDA-CTN-0002,LB,02_008740,FOLLOW-UP 2,34,METHADON,METHADONE,DRUG SCREEN,NEGATIVE,,,,NEGATIVE," ",," "," ",,,,URINE,CENTRAL LAB,,FOLLOW-UP 2,16,2002,91
NIDA-CTN-0002,LB,02_008740,FOLLOW-UP 3,41,METHADON,METHADONE,DRUG SCREEN,NEGATIVE,,,,NEGATIVE," ",," "," ",,,,URINE,CENTRAL LAB,,FOLLOW-UP 3,17,2002,189
NIDA-CTN-0002,LB,02_008740,SCREENING,8,MORPHINE,MORPHINE,DRUG SCREEN,POSITIVE,,,,POSITIVE," ",," "," ",,,,URINE,ACCUTEST,Y,"BASELINE, ANY DAY PRIOR TO FIRST DOSE",0,2001,1
NIDA-CTN-0002,LB,02_008740,ACTIVE,1,NONE,NONE,DRUG SCREEN,,,,,," ",," "," ",,NOT DONE,PATIENT DID NOT ATTEND,URINE,ACCUTEST,,UNKNOWN,-99,," "
NIDA-CTN-0002,LB,02_008740,ACTIVE,19,NONE,NONE,DRUG SCREEN,,,,,," ",," "," ",,NOT DONE,URINE NOT COLLECTED (SPECIFY IN COMMENTS),URINE,CENTRAL LAB,,STUDY DAY 3,3,," "
NIDA-CTN-0002,LB,02_008740,ACTIVE,20,NONE,NONE,DRUG SCREEN,,,,,," ",," "," ",,NOT DONE,URINE NOT COLLECTED (SPECIFY IN COMMENTS),URINE,CENTRAL LAB,,STUDY DAY 8,8,," "
NIDA-CTN-0002,LB,02_008740,ACTIVE,21,NONE,NONE,DRUG SCREEN,,,,,," ",," "," ",,NOT DONE,PATIENT DID NOT ATTEND,URINE,CENTRAL LAB,,STUDY DAY 11,11,," "
NIDA-CTN-0002,LB,02_008740,ACTIVE,22,NONE,NONE,DRUG SCREEN,,,,,," ",," "," ",,NOT DONE,PATIENT DID NOT ATTEND,URINE,CENTRAL LAB,,STUDY DAY 14,14,," "
NIDA-CTN-0002,LB,02_008740,SCREENING,17,OPIATE,OPIATE,DRUG SCREEN,POSITIVE,,,,POSITIVE," ",," "," ",,,,URINE,CENTRAL LAB,Y,"BASELINE, ANY DAY PRIOR TO FIRST DOSE",0,2001,1
NIDA-CTN-0002,LB,02_008740,FOLLOW-UP 1,28,OPIATE,OPIATE,DRUG SCREEN,POSITIVE,,,,POSITIVE," ",," "," ",,,,URINE,CENTRAL LAB,,FOLLOW-UP 1,15,2001,35
NIDA-CTN-0002,LB,02_008740,FOLLOW-UP 2,35,OPIATE,OPIATE,DRUG SCREEN,POSITIVE,,,,POSITIVE," ",," "," ",,,,URINE,CENTRAL LAB,,FOLLOW-UP 2,16,2002,91
NIDA-CTN-0002,LB,02_008740,FOLLOW-UP 3,42,OPIATE,OPIATE,DRUG SCREEN,POSITIVE,,,,POSITIVE," ",," "," ",,,,URINE,CENTRAL LAB,,FOLLOW-UP 3,17,2002,189
NIDA-CTN-0002,LB,02_008740,SCREENING,9,PCP,PCP,DRUG SCREEN,NEGATIVE,,,,NEGATIVE," ",," "," ",,,,URINE,ACCUTEST,Y,"BASELINE, ANY DAY PRIOR TO FIRST DOSE",0,2001,1
NIDA-CTN-0002,LB,02_008740,SCREENING,10,TCA,TCA,DRUG SCREEN,NEGATIVE,,,,NEGATIVE," ",," "," ",,,,URINE,ACCUTEST,Y,"BASELINE, ANY DAY PRIOR TO FIRST DOSE",0,2001,1
NIDA-CTN-0002,LB,02_008740,SCREENING,11,THC,THC,DRUG SCREEN,NEGATIVE,,,,NEGATIVE," ",," "," ",,,,URINE,ACCUTEST,Y,"BASELINE, ANY DAY PRIOR TO FIRST DOSE",0,2001,1
NIDA-CTN-0002,LB,02_008740,SCREENING,18,THC,THC,DRUG SCREEN,POSITIVE,,,,POSITIVE," ",," "," ",,,,URINE,CENTRAL LAB,Y,"BASELINE, ANY DAY PRIOR TO FIRST DOSE",0,2001,1
NIDA-CTN-0002,LB,02_008740,FOLLOW-UP 1,29,THC,THC,DRUG SCREEN,POSITIVE,,,,POSITIVE," ",," "," ",,,,URINE,CENTRAL LAB,,FOLLOW-UP 1,15,2001,35
NIDA-CTN-0002,LB,02_008740,FOLLOW-UP 2,36,THC,THC,DRUG SCREEN,NEGATIVE,,,,NEGATIVE," ",," "," ",,,,URINE,CENTRAL LAB,,FOLLOW-UP 2,16,2002,91
NIDA-CTN-0002,LB,02_008740,FOLLOW-UP 3,43,THC,THC,DRUG SCREEN,POSITIVE,,,,POSITIVE," ",," "," ",,,,URINE,CENTRAL LAB,,FOLLOW-UP 3,17,2002,189
NIDA-CTN-0002,LB,02_009190,SCREENING,2,AMPHET,AMPHETAMINES,DRUG SCREEN,NEGATIVE,,,,NEGATIVE," ",," "," ",,,,URINE,ACCUTEST,Y,"BASELINE, ANY DAY PRIOR TO FIRST DOSE",0,2001,1
NIDA-CTN-0002,LB,02_009190,SCREENING,12,AMPHET,AMPHETAMINES,DRUG SCREEN,NEGATIVE,,,,NEGATIVE," ",," "," ",,,,URINE,CENTRAL LAB,Y,"BASELINE, ANY DAY PRIOR TO FIRST DOSE",0,2001,1
NIDA-CTN-0002,LB,02_009190,ACTIVE,19,AMPHET,AMPHETAMINES,DRUG SCREEN,NEGATIVE,,,,NEGATIVE," ",," "," ",,,,URINE,CENTRAL LAB,,STUDY DAY 3,3,2001,3
NIDA-CTN-0002,LB,02_009190,ACTIVE,26,AMPHET,AMPHETAMINES,DRUG SCREEN,NEGATIVE,,,,NEGATIVE," ",," "," ",,,,URINE,CENTRAL LAB,,STUDY DAY 10,10,2001,10
NIDA-CTN-0002,LB,02_009190,ACTIVE,33,AMPHET,AMPHETAMINES,DRUG SCREEN,NEGATIVE,,,,NEGATIVE," ",," "," ",,,,URINE,ACCUTEST,,STUDY DAY 13,13,2001,13
NIDA-CTN-0002,LB,02_009190,ACTIVE,43,AMPHET,AMPHETAMINES,DRUG SCREEN,NEGATIVE,,,,NEGATIVE," ",," "," ",,,,URINE,CENTRAL LAB,,STUDY DAY 13,13,2001,13
NIDA-CTN-0002,LB,02_009190,SCREENING,3,BARBIT,BARBITURATES,DRUG SCREEN,NEGATIVE,,,,NEGATIVE," ",," "," ",,,,URINE,ACCUTEST,Y,"BASELINE, ANY DAY PRIOR TO FIRST DOSE",0,2001,1
NIDA-CTN-0002,LB,02_009190,ACTIVE,34,BARBIT,BARBITURATES,DRUG SCREEN,NEGATIVE,,,,NEGATIVE," ",," "," ",,,,URINE,ACCUTEST,,STUDY DAY 13,13,2001,13
NIDA-CTN-0002,LB,02_009190,SCREENING,4,BENZOD,BENZODIAZEPINES,DRUG SCREEN,NEGATIVE,,,,NEGATIVE," ",," "," ",,,,URINE,ACCUTEST,Y,"BASELINE, ANY DAY PRIOR TO FIRST DOSE",0,2001,1
NIDA-CTN-0002,LB,02_009190,SCREENING,13,BENZOD,BENZODIAZEPINES,DRUG SCREEN,NEGATIVE,,,,NEGATIVE," ",," "," ",,,,URINE,CENTRAL LAB,Y,"BASELINE, ANY DAY PRIOR TO FIRST DOSE",0,2001,1
NIDA-CTN-0002,LB,02_009190,ACTIVE,20,BENZOD,BENZODIAZEPINES,DRUG SCREEN,NEGATIVE,,,,NEGATIVE," ",," "," ",,,,URINE,CENTRAL LAB,,STUDY DAY 3,3,2001,3
NIDA-CTN-0002,LB,02_009190,ACTIVE,27,BENZOD,BENZODIAZEPINES,DRUG SCREEN,NEGATIVE,,,,NEGATIVE," ",," "," ",,,,URINE,CENTRAL LAB,,STUDY DAY 10,10,2001,10
NIDA-CTN-0002,LB,02_009190,ACTIVE,35,BENZOD,BENZODIAZEPINES,DRUG SCREEN,NEGATIVE,,,,NEGATIVE," ",," "," ",,,,URINE,ACCUTEST,,STUDY DAY 13,13,2001,13
NIDA-CTN-0002,LB,02_009190,ACTIVE,44,BENZOD,BENZODIAZEPINES,DRUG SCREEN,NEGATIVE,,,,NEGATIVE," ",," "," ",,,,URINE,CENTRAL LAB,,STUDY DAY 13,13,2001,13
NIDA-CTN-0002,LB,02_009190,SCREENING,5,COCAINE,COCAINE,DRUG SCREEN,NEGATIVE,,,,NEGATIVE," ",," "," ",,,,URINE,ACCUTEST,Y,"BASELINE, ANY DAY PRIOR TO FIRST DOSE",0,2001,1
NIDA-CTN-0002,LB,02_009190,SCREENING,14,COCAINE,COCAINE,DRUG SCREEN,POSITIVE,,,,POSITIVE," ",," "," ",,,,URINE,CENTRAL LAB,Y,"BASELINE, ANY DAY PRIOR TO FIRST DOSE",0,2001,1
NIDA-CTN-0002,LB,02_009190,ACTIVE,21,COCAINE,COCAINE,DRUG SCREEN,POSITIVE,,,,POSITIVE," ",," "," ",,,,URINE,CENTRAL LAB,,STUDY DAY 3,3,2001,3
NIDA-CTN-0002,LB,02_009190,ACTIVE,28,COCAINE,COCAINE,DRUG SCREEN,POSITIVE,,,,POSITIVE," ",," "," ",,,,URINE,CENTRAL LAB,,STUDY DAY 10,10,2001,10
NIDA-CTN-0002,LB,02_009190,ACTIVE,36,COCAINE,COCAINE,DRUG SCREEN,NEGATIVE,,,,NEGATIVE," ",," "," ",,,,URINE,ACCUTEST,,STUDY DAY 13,13,2001,13
NIDA-CTN-0002,LB,02_009190,ACTIVE,45,COCAINE,COCAINE,DRUG SCREEN,POSITIVE,,,,POSITIVE," ",," "," ",,,,URINE,CENTRAL LAB,,STUDY DAY 13,13,2001,13
NIDA-CTN-0002,LB,02_009190,SCREENING,15,CREAT,CREATININE,CHEMISTRY,41.3,mg/dL,,,41.3,41.3,mg/dL," "," ",,,,URINE,CENTRAL LAB,Y,"BASELINE, ANY DAY PRIOR TO FIRST DOSE",0,2001,1
NIDA-CTN-0002,LB,02_009190,ACTIVE,22,CREAT,CREATININE,CHEMISTRY,81.8,mg/dL,,,81.8,81.8,mg/dL," "," ",,,,URINE,CENTRAL LAB,,STUDY DAY 3,3,2001,3
NIDA-CTN-0002,LB,02_009190,ACTIVE,29,CREAT,CREATININE,CHEMISTRY,96.0,mg/dL,,,96.0,96,mg/dL," "," ",,,,URINE,CENTRAL LAB,,STUDY DAY 10,10,2001,10
NIDA-CTN-0002,LB,02_009190,ACTIVE,46,CREAT,CREATININE,CHEMISTRY,104.1,mg/dL,,,104.1,104.1,mg/dL," "," ",,,,URINE,CENTRAL LAB,,STUDY DAY 13,13,2001,13
NIDA-CTN-0002,LB,02_009190,SCREENING,6,METH,METHAMPHETAMINE,DRUG SCREEN,NEGATIVE,,,,NEGATIVE," ",," "," ",,,,URINE,ACCUTEST,Y,"BASELINE, ANY DAY PRIOR TO FIRST DOSE",0,2001,1
NIDA-CTN-0002,LB,02_009190,ACTIVE,37,METH,METHAMPHETAMINE,DRUG SCREEN,NEGATIVE,,,,NEGATIVE," ",," "," ",,,,URINE,ACCUTEST,,STUDY DAY 13,13,2001,13
NIDA-CTN-0002,LB,02_009190,SCREENING,7,METHADON,METHADONE,DRUG SCREEN,POSITIVE,,,,POSITIVE," ",," "," ",,,,URINE,ACCUTEST,Y,"BASELINE, ANY DAY PRIOR TO FIRST DOSE",0,2001,1
NIDA-CTN-0002,LB,02_009190,SCREENING,16,METHADON,METHADONE,DRUG SCREEN,NEGATIVE,,,,NEGATIVE," ",," "," ",,,,URINE,CENTRAL LAB,Y,"BASELINE, ANY DAY PRIOR TO FIRST DOSE",0,2001,1
NIDA-CTN-0002,LB,02_009190,ACTIVE,23,METHADON,METHADONE,DRUG SCREEN,NEGATIVE,,,,NEGATIVE," ",," "," ",,,,URINE,CENTRAL LAB,,STUDY DAY 3,3,2001,3
NIDA-CTN-0002,LB,02_009190,ACTIVE,30,METHADON,METHADONE,DRUG SCREEN,NEGATIVE,,,,NEGATIVE," ",," "," ",,,,URINE,CENTRAL LAB,,STUDY DAY 10,10,2001,10
NIDA-CTN-0002,LB,02_009190,ACTIVE,38,METHADON,METHADONE,DRUG SCREEN,POSITIVE,,,,POSITIVE," ",," "," ",,,,URINE,ACCUTEST,,STUDY DAY 13,13,2001,13
NIDA-CTN-0002,LB,02_009190,ACTIVE,47,METHADON,METHADONE,DRUG SCREEN,NEGATIVE,,,,NEGATIVE," ",," "," ",,,,URINE,CENTRAL LAB,,STUDY DAY 13,13,2001,13
NIDA-CTN-0002,LB,02_009190,SCREENING,8,MORPHINE,MORPHINE,DRUG SCREEN,NEGATIVE,,,,NEGATIVE," ",," "," ",,,,URINE,ACCUTEST,Y,"BASELINE, ANY DAY PRIOR TO FIRST DOSE",0,2001,1
NIDA-CTN-0002,LB,02_009190,ACTIVE,39,MORPHINE,MORPHINE,DRUG SCREEN,NEGATIVE,,,,NEGATIVE," ",," "," ",,,,URINE,ACCUTEST,,STUDY DAY 13,13,2001,13
NIDA-CTN-0002,LB,02_009190,ACTIVE,1,NONE,NONE,DRUG SCREEN,,,,,," ",," "," ",,NOT DONE,PATIENT DID NOT ATTEND,URINE,CENTRAL LAB,,UNKNOWN,-99,," "
NIDA-CTN-0002,LB,02_009190,FOLLOW-UP 1,50,NONE,NONE,DRUG SCREEN,,,,,," ",," "," ",,NOT DONE,PATIENT DID NOT ATTEND,URINE,CENTRAL LAB,,FOLLOW-UP 1,15,," "
NIDA-CTN-0002,LB,02_009190,FOLLOW-UP 2,51,NONE,NONE,DRUG SCREEN,,,,,," ",," "," ",,NOT DONE,PATIENT DID NOT ATTEND,URINE,CENTRAL LAB,,FOLLOW-UP 2,16,," "
NIDA-CTN-0002,LB,02_009190,FOLLOW-UP 3,52,NONE,NONE,DRUG SCREEN,,,,,," ",," "," ",,NOT DONE,PATIENT DID NOT ATTEND,URINE,CENTRAL LAB,,FOLLOW-UP 3,17,," "
NIDA-CTN-0002,LB,02_009190,SCREENING,17,OPIATE,OPIATE,DRUG SCREEN,POSITIVE,,,,POSITIVE," ",," "," ",,,,URINE,CENTRAL LAB,Y,"BASELINE, ANY DAY PRIOR TO FIRST DOSE",0,2001,1
NIDA-CTN-0002,LB,02_009190,ACTIVE,24,OPIATE,OPIATE,DRUG SCREEN,NEGATIVE,,,,NEGATIVE," ",," "," ",,,,URINE,CENTRAL LAB,,STUDY DAY 3,3,2001,3
NIDA-CTN-0002,LB,02_009190,ACTIVE,31,OPIATE,OPIATE,DRUG SCREEN,NEGATIVE,,,,NEGATIVE," ",," "," ",,,,URINE,CENTRAL LAB,,STUDY DAY 10,10,2001,10
NIDA-CTN-0002,LB,02_009190,ACTIVE,48,OPIATE,OPIATE,DRUG SCREEN,NEGATIVE,,,,NEGATIVE," ",," "," ",,,,URINE,CENTRAL LAB,,STUDY DAY 13,13,2001,13
NIDA-CTN-0002,LB,02_009190,SCREENING,9,PCP,PCP,DRUG SCREEN,POSITIVE,,,,POSITIVE," ",," "," ",,,,URINE,ACCUTEST,Y,"BASELINE, ANY DAY PRIOR TO FIRST DOSE",0,2001,1
NIDA-CTN-0002,LB,02_009190,ACTIVE,40,PCP,PCP,DRUG SCREEN,NEGATIVE,,,,NEGATIVE," ",," "," ",,,,URINE,ACCUTEST,,STUDY DAY 13,13,2001,13
NIDA-CTN-0002,LB,02_009190,SCREENING,10,TCA,TCA,DRUG SCREEN,NEGATIVE,,,,NEGATIVE," ",," "," ",,,,URINE,ACCUTEST,Y,"BASELINE, ANY DAY PRIOR TO FIRST DOSE",0,2001,1
NIDA-CTN-0002,LB,02_009190,ACTIVE,41,TCA,TCA,DRUG SCREEN,NEGATIVE,,,,NEGATIVE," ",," "," ",,,,URINE,ACCUTEST,,STUDY DAY 13,13,2001,13
NIDA-CTN-0002,LB,02_009190,SCREENING,11,THC,THC,DRUG SCREEN,POSITIVE,,,,POSITIVE," ",," "," ",,,,URINE,ACCUTEST,Y,"BASELINE, ANY DAY PRIOR TO FIRST DOSE",0,2001,1
NIDA-CTN-0002,LB,02_009190,SCREENING,18,THC,THC,DRUG SCREEN,POSITIVE,,,,POSITIVE," ",," "," ",,,,URINE,CENTRAL LAB,Y,"BASELINE, ANY DAY PRIOR TO FIRST DOSE",0,2001,1
NIDA-CTN-0002,LB,02_009190,ACTIVE,25,THC,THC,DRUG SCREEN,POSITIVE,,,,POSITIVE," ",," "," ",,,,URINE,CENTRAL LAB,,STUDY DAY 3,3,2001,3
NIDA-CTN-0002,LB,02_009190,ACTIVE,32,THC,THC,DRUG SCREEN,POSITIVE,,,,POSITIVE," ",," "," ",,,,URINE,CENTRAL LAB,,STUDY DAY 10,10,2001,10
NIDA-CTN-0002,LB,02_009190,ACTIVE,42,THC,THC,DRUG SCREEN,POSITIVE,,,,POSITIVE," ",," "," ",,,,URINE,ACCUTEST,,STUDY DAY 13,13,2001,13
NIDA-CTN-0002,LB,02_009190,ACTIVE,49,THC,THC,DRUG SCREEN,POSITIVE,,,,POSITIVE," ",," "," ",,,,URINE,CENTRAL LAB,,STUDY DAY 13,13,2001,13
NIDA-CTN-0002,LB,02_009452,SCREENING,2,AMPHET,AMPHETAMINES,DRUG SCREEN,NEGATIVE,,,,NEGATIVE," ",," "," ",,,,URINE,ACCUTEST,Y,"BASELINE, ANY DAY PRIOR TO FIRST DOSE",0,2002,1
NIDA-CTN-0002,LB,02_009452,SCREENING,12,AMPHET,AMPHETAMINES,DRUG SCREEN,NEGATIVE,,,,NEGATIVE," ",," "," ",,,,URINE,CENTRAL LAB,Y,"BASELINE, ANY DAY PRIOR TO FIRST DOSE",0,2002,1
NIDA-CTN-0002,LB,02_009452,ACTIVE,19,AMPHET,AMPHETAMINES,DRUG SCREEN,NEGATIVE,,,,NEGATIVE," ",," "," ",,,,URINE,CENTRAL LAB,,STUDY DAY 3,3,2002,3
NIDA-CTN-0002,LB,02_009452,ACTIVE,26,AMPHET,AMPHETAMINES,DRUG SCREEN,NEGATIVE,,,,NEGATIVE," ",," "," ",,,,URINE,CENTRAL LAB,,STUDY DAY 8,8,2002,8
NIDA-CTN-0002,LB,02_009452,ACTIVE,34,AMPHET,AMPHETAMINES,DRUG SCREEN,NEGATIVE,,,,NEGATIVE," ",," "," ",,,,URINE,CENTRAL LAB,,STUDY DAY 10,10,2002,10
NIDA-CTN-0002,LB,02_009452,SCREENING,3,BARBIT,BARBITURATES,DRUG SCREEN,NEGATIVE,,,,NEGATIVE," ",," "," ",,,,URINE,ACCUTEST,Y,"BASELINE, ANY DAY PRIOR TO FIRST DOSE",0,2002,1
NIDA-CTN-0002,LB,02_009452,SCREENING,4,BENZOD,BENZODIAZEPINES,DRUG SCREEN,NEGATIVE,,,,NEGATIVE," ",," "," ",,,,URINE,ACCUTEST,Y,"BASELINE, ANY DAY PRIOR TO FIRST DOSE",0,2002,1
NIDA-CTN-0002,LB,02_009452,SCREENING,13,BENZOD,BENZODIAZEPINES,DRUG SCREEN,NEGATIVE,,,,NEGATIVE," ",," "," ",,,,URINE,CENTRAL LAB,Y,"BASELINE, ANY DAY PRIOR TO FIRST DOSE",0,2002,1
NIDA-CTN-0002,LB,02_009452,ACTIVE,20,BENZOD,BENZODIAZEPINES,DRUG SCREEN,NEGATIVE,,,,NEGATIVE," ",," "," ",,,,URINE,CENTRAL LAB,,STUDY DAY 3,3,2002,3
NIDA-CTN-0002,LB,02_009452,ACTIVE,27,BENZOD,BENZODIAZEPINES,DRUG SCREEN,NEGATIVE,,,,NEGATIVE," ",," "," ",,,,URINE,CENTRAL LAB,,STUDY DAY 8,8,2002,8
NIDA-CTN-0002,LB,02_009452,ACTIVE,35,BENZOD,BENZODIAZEPINES,DRUG SCREEN,NEGATIVE,,,,NEGATIVE," ",," "," ",,,,URINE,CENTRAL LAB,,STUDY DAY 10,10,2002,10
NIDA-CTN-0002,LB,02_009452,SCREENING,5,COCAINE,COCAINE,DRUG SCREEN,NEGATIVE,,,,NEGATIVE," ",," "," ",,,,URINE,ACCUTEST,Y,"BASELINE, ANY DAY PRIOR TO FIRST DOSE",0,2002,1
NIDA-CTN-0002,LB,02_009452,SCREENING,14,COCAINE,COCAINE,DRUG SCREEN,NEGATIVE,,,,NEGATIVE," ",," "," ",,,,URINE,CENTRAL LAB,Y,"BASELINE, ANY DAY PRIOR TO FIRST DOSE",0,2002,1
NIDA-CTN-0002,LB,02_009452,ACTIVE,21,COCAINE,COCAINE,DRUG SCREEN,NEGATIVE,,,,NEGATIVE," ",," "," ",,,,URINE,CENTRAL LAB,,STUDY DAY 3,3,2002,3
NIDA-CTN-0002,LB,02_009452,ACTIVE,28,COCAINE,COCAINE,DRUG SCREEN,POSITIVE,,,,POSITIVE," ",," "," ",,,,URINE,CENTRAL LAB,,STUDY DAY 8,8,2002,8
NIDA-CTN-0002,LB,02_009452,ACTIVE,36,COCAINE,COCAINE,DRUG SCREEN,POSITIVE,,,,POSITIVE," ",," "," ",,,,URINE,CENTRAL LAB,,STUDY DAY 10,10,2002,10
NIDA-CTN-0002,LB,02_009452,SCREENING,15,CREAT,CREATININE,CHEMISTRY,75.4,mg/dL,,,75.4,75.4,mg/dL," "," ",,,,URINE,CENTRAL LAB,Y,"BASELINE, ANY DAY PRIOR TO FIRST DOSE",0,2002,1
NIDA-CTN-0002,LB,02_009452,ACTIVE,22,CREAT,CREATININE,CHEMISTRY,107.3,mg/dL,,,107.3,107.3,mg/dL," "," ",,,,URINE,CENTRAL LAB,,STUDY DAY 3,3,2002,3
NIDA-CTN-0002,LB,02_009452,ACTIVE,29,CREAT,CREATININE,CHEMISTRY,113.6,mg/dL,,,113.6,113.6,mg/dL," "," ",,,,URINE,CENTRAL LAB,,STUDY DAY 8,8,2002,8
NIDA-CTN-0002,LB,02_009452,ACTIVE,37,CREAT,CREATININE,CHEMISTRY,97.2,mg/dL,,,97.2,97.2,mg/dL," "," ",,,,URINE,CENTRAL LAB,,STUDY DAY 10,10,2002,10
NIDA-CTN-0002,LB,02_009452,SCREENING,6,METH,METHAMPHETAMINE,DRUG SCREEN,NEGATIVE,,,,NEGATIVE," ",," "," ",,,,URINE,ACCUTEST,Y,"BASELINE, ANY DAY PRIOR TO FIRST DOSE",0,2002,1
NIDA-CTN-0002,LB,02_009452,SCREENING,7,METHADON,METHADONE,DRUG SCREEN,NEGATIVE,,,,NEGATIVE," ",," "," ",,,,URINE,ACCUTEST,Y,"BASELINE, ANY DAY PRIOR TO FIRST DOSE",0,2002,1
NIDA-CTN-0002,LB,02_009452,SCREENING,16,METHADON,METHADONE,DRUG SCREEN,NEGATIVE,,,,NEGATIVE," ",," "," ",,,,URINE,CENTRAL LAB,Y,"BASELINE, ANY DAY PRIOR TO FIRST DOSE",0,2002,1
NIDA-CTN-0002,LB,02_009452,ACTIVE,23,METHADON,METHADONE,DRUG SCREEN,NEGATIVE,,,,NEGATIVE," ",," "," ",,,,URINE,CENTRAL LAB,,STUDY DAY 3,3,2002,3
NIDA-CTN-0002,LB,02_009452,ACTIVE,30,METHADON,METHADONE,DRUG SCREEN,NEGATIVE,,,,NEGATIVE," ",," "," ",,,,URINE,CENTRAL LAB,,STUDY DAY 8,8,2002,8
NIDA-CTN-0002,LB,02_009452,ACTIVE,38,METHADON,METHADONE,DRUG SCREEN,NEGATIVE,,,,NEGATIVE," ",," "," ",,,,URINE,CENTRAL LAB,,STUDY DAY 10,10,2002,10
NIDA-CTN-0002,LB,02_009452,SCREENING,8,MORPHINE,MORPHINE,DRUG SCREEN,NEGATIVE,,,,NEGATIVE," ",," "," ",,,,URINE,ACCUTEST,Y,"BASELINE, ANY DAY PRIOR TO FIRST DOSE",0,2002,1
NIDA-CTN-0002,LB,02_009452,ACTIVE,1,NONE,NONE,DRUG SCREEN,,,,,," ",," "," ",,NOT DONE,PATIENT DID NOT ATTEND,URINE,CENTRAL LAB,,UNKNOWN,-99,," "
NIDA-CTN-0002,LB,02_009452,ACTIVE,33,NONE,NONE,DRUG SCREEN,,,,,," ",," "," ",,NOT DONE,PATIENT DID NOT ATTEND,URINE,ACCUTEST,,STUDY DAY 10,10,2002,10
NIDA-CTN-0002,LB,02_009452,FOLLOW-UP 1,41,NONE,NONE,DRUG SCREEN,,,,,," ",," "," ",,NOT DONE,PATIENT DID NOT ATTEND,URINE,CENTRAL LAB,,FOLLOW-UP 1,15,," "
NIDA-CTN-0002,LB,02_009452,FOLLOW-UP 2,42,NONE,NONE,DRUG SCREEN,,,,,," ",," "," ",,NOT DONE,PATIENT DID NOT ATTEND,URINE,CENTRAL LAB,,FOLLOW-UP 2,16,," "
NIDA-CTN-0002,LB,02_009452,FOLLOW-UP 3,43,NONE,NONE,DRUG SCREEN,,,,,," ",," "," ",,NOT DONE,PATIENT DID NOT ATTEND,URINE,CENTRAL LAB,,FOLLOW-UP 3,17,," "
NIDA-CTN-0002,LB,02_009452,SCREENING,17,OPIATE,OPIATE,DRUG SCREEN,POSITIVE,,,,POSITIVE," ",," "," ",,,,URINE,CENTRAL LAB,Y,"BASELINE, ANY DAY PRIOR TO FIRST DOSE",0,2002,1
NIDA-CTN-0002,LB,02_009452,ACTIVE,24,OPIATE,OPIATE,DRUG SCREEN,POSITIVE,,,,POSITIVE," ",," "," ",,,,URINE,CENTRAL LAB,,STUDY DAY 3,3,2002,3
NIDA-CTN-0002,LB,02_009452,ACTIVE,31,OPIATE,OPIATE,DRUG SCREEN,POSITIVE,,,,POSITIVE," ",," "," ",,,,URINE,CENTRAL LAB,,STUDY DAY 8,8,2002,8
NIDA-CTN-0002,LB,02_009452,ACTIVE,39,OPIATE,OPIATE,DRUG SCREEN,POSITIVE,,,,POSITIVE," ",," "," ",,,,URINE,CENTRAL LAB,,STUDY DAY 10,10,2002,10
NIDA-CTN-0002,LB,02_009452,SCREENING,9,PCP,PCP,DRUG SCREEN,POSITIVE,,,,POSITIVE," ",," "," ",,,,URINE,ACCUTEST,Y,"BASELINE, ANY DAY PRIOR TO FIRST DOSE",0,2002,1
NIDA-CTN-0002,LB,02_009452,SCREENING,10,TCA,TCA,DRUG SCREEN,NEGATIVE,,,,NEGATIVE," ",," "," ",,,,URINE,ACCUTEST,Y,"BASELINE, ANY DAY PRIOR TO FIRST DOSE",0,2002,1
NIDA-CTN-0002,LB,02_009452,SCREENING,11,THC,THC,DRUG SCREEN,NEGATIVE,,,,NEGATIVE," ",," "," ",,,,URINE,ACCUTEST,Y,"BASELINE, ANY DAY PRIOR TO FIRST DOSE",0,2002,1
NIDA-CTN-0002,LB,02_009452,SCREENING,18,THC,THC,DRUG SCREEN,NEGATIVE,,,,NEGATIVE," ",," "," ",,,,URINE,CENTRAL LAB,Y,"BASELINE, ANY DAY PRIOR TO FIRST DOSE",0,2002,1
NIDA-CTN-0002,LB,02_009452,ACTIVE,25,THC,THC,DRUG SCREEN,NEGATIVE,,,,NEGATIVE," ",," "," ",,,,URINE,CENTRAL LAB,,STUDY DAY 3,3,2002,3
NIDA-CTN-0002,LB,02_009452,ACTIVE,32,THC,THC,DRUG SCREEN,NEGATIVE,,,,NEGATIVE," ",," "," ",,,,URINE,CENTRAL LAB,,STUDY DAY 8,8,2002,8
NIDA-CTN-0002,LB,02_009452,ACTIVE,40,THC,THC,DRUG SCREEN,NEGATIVE,,,,NEGATIVE," ",," "," ",,,,URINE,CENTRAL LAB,,STUDY DAY 10,10,2002,10
NIDA-CTN-0002,LB,02_011297,SCREENING,1,AMPHET,AMPHETAMINES,DRUG SCREEN,NEGATIVE,,,,NEGATIVE," ",," "," ",,,,URINE,ACCUTEST,Y,"BASELINE, ANY DAY PRIOR TO FIRST DOSE",0,2001,1
NIDA-CTN-0002,LB,02_011297,SCREENING,11,AMPHET,AMPHETAMINES,DRUG SCREEN,NEGATIVE,,,,NEGATIVE," ",," "," ",,,,URINE,CENTRAL LAB,Y,"BASELINE, ANY DAY PRIOR TO FIRST DOSE",0,2001,1
NIDA-CTN-0002,LB,02_011297,ACTIVE,18,AMPHET,AMPHETAMINES,DRUG SCREEN,NEGATIVE,,,,NEGATIVE," ",," "," ",,,,URINE,CENTRAL LAB,,STUDY DAY 3,3,2001,3
NIDA-CTN-0002,LB,02_011297,FOLLOW-UP 1,25,AMPHET,AMPHETAMINES,DRUG SCREEN,NEGATIVE,,,,NEGATIVE," ",," "," ",,,,URINE,CENTRAL LAB,,FOLLOW-UP 1,15,2002,60
NIDA-CTN-0002,LB,02_011297,FOLLOW-UP 2,32,AMPHET,AMPHETAMINES,DRUG SCREEN,POSITIVE,,,,POSITIVE," ",," "," ",,,,URINE,CENTRAL LAB,,FOLLOW-UP 2,16,2002,107
NIDA-CTN-0002,LB,02_011297,FOLLOW-UP 3,39,AMPHET,AMPHETAMINES,DRUG SCREEN,POSITIVE,,,,POSITIVE," ",," "," ",,,,URINE,CENTRAL LAB,,FOLLOW-UP 3,17,2002,200
NIDA-CTN-0002,LB,02_011297,SCREENING,2,BARBIT,BARBITURATES,DRUG SCREEN,NEGATIVE,,,,NEGATIVE," ",," "," ",,,,URINE,ACCUTEST,Y,"BASELINE, ANY DAY PRIOR TO FIRST DOSE",0,2001,1
NIDA-CTN-0002,LB,02_011297,SCREENING,3,BENZOD,BENZODIAZEPINES,DRUG SCREEN,NEGATIVE,,,,NEGATIVE," ",," "," ",,,,URINE,ACCUTEST,Y,"BASELINE, ANY DAY PRIOR TO FIRST DOSE",0,2001,1
NIDA-CTN-0002,LB,02_011297,SCREENING,12,BENZOD,BENZODIAZEPINES,DRUG SCREEN,NEGATIVE,,,,NEGATIVE," ",," "," ",,,,URINE,CENTRAL LAB,Y,"BASELINE, ANY DAY PRIOR TO FIRST DOSE",0,2001,1
NIDA-CTN-0002,LB,02_011297,ACTIVE,19,BENZOD,BENZODIAZEPINES,DRUG SCREEN,NEGATIVE,,,,NEGATIVE," ",," "," ",,,,URINE,CENTRAL LAB,,STUDY DAY 3,3,2001,3
NIDA-CTN-0002,LB,02_011297,FOLLOW-UP 1,26,BENZOD,BENZODIAZEPINES,DRUG SCREEN,NEGATIVE,,,,NEGATIVE," ",," "," ",,,,URINE,CENTRAL LAB,,FOLLOW-UP 1,15,2002,60
NIDA-CTN-0002,LB,02_011297,FOLLOW-UP 2,33,BENZOD,BENZODIAZEPINES,DRUG SCREEN,NEGATIVE,,,,NEGATIVE," ",," "," ",,,,URINE,CENTRAL LAB,,FOLLOW-UP 2,16,2002,107
NIDA-CTN-0002,LB,02_011297,FOLLOW-UP 3,40,BENZOD,BENZODIAZEPINES,DRUG SCREEN,NEGATIVE,,,,NEGATIVE," ",," "," ",,,,URINE,CENTRAL LAB,,FOLLOW-UP 3,17,2002,200
NIDA-CTN-0002,LB,02_011297,SCREENING,4,COCAINE,COCAINE,DRUG SCREEN,NEGATIVE,,,,NEGATIVE," ",," "," ",,,,URINE,ACCUTEST,Y,"BASELINE, ANY DAY PRIOR TO FIRST DOSE",0,2001,1
NIDA-CTN-0002,LB,02_011297,SCREENING,13,COCAINE,COCAINE,DRUG SCREEN,NEGATIVE,,,,NEGATIVE," ",," "," ",,,,URINE,CENTRAL LAB,Y,"BASELINE, ANY DAY PRIOR TO FIRST DOSE",0,2001,1
NIDA-CTN-0002,LB,02_011297,ACTIVE,20,COCAINE,COCAINE,DRUG SCREEN,NEGATIVE,,,,NEGATIVE," ",," "," ",,,,URINE,CENTRAL LAB,,STUDY DAY 3,3,2001,3
NIDA-CTN-0002,LB,02_011297,FOLLOW-UP 1,27,COCAINE,COCAINE,DRUG SCREEN,NEGATIVE,,,,NEGATIVE," ",," "," ",,,,URINE,CENTRAL LAB,,FOLLOW-UP 1,15,2002,60
NIDA-CTN-0002,LB,02_011297,FOLLOW-UP 2,34,COCAINE,COCAINE,DRUG SCREEN,NEGATIVE,,,,NEGATIVE," ",," "," ",,,,URINE,CENTRAL LAB,,FOLLOW-UP 2,16,2002,107
NIDA-CTN-0002,LB,02_011297,FOLLOW-UP 3,41,COCAINE,COCAINE,DRUG SCREEN,NEGATIVE,,,,NEGATIVE," ",," "," ",,,,URINE,CENTRAL LAB,,FOLLOW-UP 3,17,2002,200
NIDA-CTN-0002,LB,02_011297,SCREENING,14,CREAT,CREATININE,CHEMISTRY,105.4,mg/dL,,,105.4,105.4,mg/dL," "," ",,,,URINE,CENTRAL LAB,Y,"BASELINE, ANY DAY PRIOR TO FIRST DOSE",0,2001,1
NIDA-CTN-0002,LB,02_011297,ACTIVE,21,CREAT,CREATININE,CHEMISTRY,82.8,mg/dL,,,82.8,82.8,mg/dL," "," ",,,,URINE,CENTRAL LAB,,STUDY DAY 3,3,2001,3
NIDA-CTN-0002,LB,02_011297,FOLLOW-UP 1,28,CREAT,CREATININE,CHEMISTRY,149.3,mg/dL,,,149.3,149.3,mg/dL," "," ",,,,URINE,CENTRAL LAB,,FOLLOW-UP 1,15,2002,60
NIDA-CTN-0002,LB,02_011297,FOLLOW-UP 2,35,CREAT,CREATININE,CHEMISTRY,170.5,mg/dL,,,170.5,170.5,mg/dL," "," ",,,,URINE,CENTRAL LAB,,FOLLOW-UP 2,16,2002,107
NIDA-CTN-0002,LB,02_011297,FOLLOW-UP 3,42,CREAT,CREATININE,CHEMISTRY,121.8,mg/dL,,,121.8,121.8,mg/dL," "," ",,,,URINE,CENTRAL LAB,,FOLLOW-UP 3,17,2002,200
NIDA-CTN-0002,LB,02_011297,SCREENING,5,METH,METHAMPHETAMINE,DRUG SCREEN,NEGATIVE,,,,NEGATIVE," ",," "," ",,,,URINE,ACCUTEST,Y,"BASELINE, ANY DAY PRIOR TO FIRST DOSE",0,2001,1
NIDA-CTN-0002,LB,02_011297,SCREENING,6,METHADON,METHADONE,DRUG SCREEN,NEGATIVE,,,,NEGATIVE," ",," "," ",,,,URINE,ACCUTEST,Y,"BASELINE, ANY DAY PRIOR TO FIRST DOSE",0,2001,1
NIDA-CTN-0002,LB,02_011297,SCREENING,15,METHADON,METHADONE,DRUG SCREEN,NEGATIVE,,,,NEGATIVE," ",," "," ",,,,URINE,CENTRAL LAB,Y,"BASELINE, ANY DAY PRIOR TO FIRST DOSE",0,2001,1
NIDA-CTN-0002,LB,02_011297,ACTIVE,22,METHADON,METHADONE,DRUG SCREEN,NEGATIVE,,,,NEGATIVE," ",," "," ",,,,URINE,CENTRAL LAB,,STUDY DAY 3,3,2001,3
NIDA-CTN-0002,LB,02_011297,FOLLOW-UP 1,29,METHADON,METHADONE,DRUG SCREEN,NEGATIVE,,,,NEGATIVE," ",," "," ",,,,URINE,CENTRAL LAB,,FOLLOW-UP 1,15,2002,60
NIDA-CTN-0002,LB,02_011297,FOLLOW-UP 2,36,METHADON,METHADONE,DRUG SCREEN,POSITIVE,,,,POSITIVE," ",," "," ",,,,URINE,CENTRAL LAB,,FOLLOW-UP 2,16,2002,107
NIDA-CTN-0002,LB,02_011297,FOLLOW-UP 3,43,METHADON,METHADONE,DRUG SCREEN,POSITIVE,,,,POSITIVE," ",," "," ",,,,URINE,CENTRAL LAB,,FOLLOW-UP 3,17,2002,200
NIDA-CTN-0002,LB,02_011297,SCREENING,7,MORPHINE,MORPHINE,DRUG SCREEN,POSITIVE,,,,POSITIVE," ",," "," ",,,,URINE,ACCUTEST,Y,"BASELINE, ANY DAY PRIOR TO FIRST DOSE",0,2001,1
NIDA-CTN-0002,LB,02_011297,SCREENING,16,OPIATE,OPIATE,DRUG SCREEN,POSITIVE,,,,POSITIVE," ",," "," ",,,,URINE,CENTRAL LAB,Y,"BASELINE, ANY DAY PRIOR TO FIRST DOSE",0,2001,1
NIDA-CTN-0002,LB,02_011297,ACTIVE,23,OPIATE,OPIATE,DRUG SCREEN,POSITIVE,,,,POSITIVE," ",," "," ",,,,URINE,CENTRAL LAB,,STUDY DAY 3,3,2001,3
NIDA-CTN-0002,LB,02_011297,FOLLOW-UP 1,30,OPIATE,OPIATE,DRUG SCREEN,NEGATIVE,,,,NEGATIVE," ",," "," ",,,,URINE,CENTRAL LAB,,FOLLOW-UP 1,15,2002,60
NIDA-CTN-0002,LB,02_011297,FOLLOW-UP 2,37,OPIATE,OPIATE,DRUG SCREEN,POSITIVE,,,,POSITIVE," ",," "," ",,,,URINE,CENTRAL LAB,,FOLLOW-UP 2,16,2002,107
NIDA-CTN-0002,LB,02_011297,FOLLOW-UP 3,44,OPIATE,OPIATE,DRUG SCREEN,POSITIVE,,,,POSITIVE," ",," "," ",,,,URINE,CENTRAL LAB,,FOLLOW-UP 3,17,2002,200
NIDA-CTN-0002,LB,02_011297,SCREENING,8,PCP,PCP,DRUG SCREEN,NEGATIVE,,,,NEGATIVE," ",," "," ",,,,URINE,ACCUTEST,Y,"BASELINE, ANY DAY PRIOR TO FIRST DOSE",0,2001,1
NIDA-CTN-0002,LB,02_011297,SCREENING,9,TCA,TCA,DRUG SCREEN,NEGATIVE,,,,NEGATIVE," ",," "," ",,,,URINE,ACCUTEST,Y,"BASELINE, ANY DAY PRIOR TO FIRST DOSE",0,2001,1
NIDA-CTN-0002,LB,02_011297,SCREENING,10,THC,THC,DRUG SCREEN,NEGATIVE,,,,NEGATIVE," ",," "," ",,,,URINE,ACCUTEST,Y,"BASELINE, ANY DAY PRIOR TO FIRST DOSE",0,2001,1
NIDA-CTN-0002,LB,02_011297,SCREENING,17,THC,THC,DRUG SCREEN,NEGATIVE,,,,NEGATIVE," ",," "," ",,,,URINE,CENTRAL LAB,Y,"BASELINE, ANY DAY PRIOR TO FIRST DOSE",0,2001,1
NIDA-CTN-0002,LB,02_011297,ACTIVE,24,THC,THC,DRUG SCREEN,NEGATIVE,,,,NEGATIVE," ",," "," ",,,,URINE,CENTRAL LAB,,STUDY DAY 3,3,2001,3
NIDA-CTN-0002,LB,02_011297,FOLLOW-UP 1,31,THC,THC,DRUG SCREEN,NEGATIVE,,,,NEGATIVE," ",," "," ",,,,URINE,CENTRAL LAB,,FOLLOW-UP 1,15,2002,60
NIDA-CTN-0002,LB,02_011297,FOLLOW-UP 2,38,THC,THC,DRUG SCREEN,NEGATIVE,,,,NEGATIVE," ",," "," ",,,,URINE,CENTRAL LAB,,FOLLOW-UP 2,16,2002,107
NIDA-CTN-0002,LB,02_011297,FOLLOW-UP 3,45,THC,THC,DRUG SCREEN,NEGATIVE,,,,NEGATIVE," ",," "," ",,,,URINE,CENTRAL LAB,,FOLLOW-UP 3,17,2002,200
NIDA-CTN-0002,LB,02_011526,SCREENING,1,AMPHET,AMPHETAMINES,DRUG SCREEN,NEGATIVE,,,,NEGATIVE," ",," "," ",,,,URINE,ACCUTEST,Y,"BASELINE, ANY DAY PRIOR TO FIRST DOSE",0,2001,-1
NIDA-CTN-0002,LB,02_011526,SCREENING,11,AMPHET,AMPHETAMINES,DRUG SCREEN,NEGATIVE,,,,NEGATIVE," ",," "," ",,,,URINE,CENTRAL LAB,Y,"BASELINE, ANY DAY PRIOR TO FIRST DOSE",0,2001,-1
NIDA-CTN-0002,LB,02_011526,ACTIVE,18,AMPHET,AMPHETAMINES,DRUG SCREEN,NEGATIVE,,,,NEGATIVE," ",," "," ",,,,URINE,CENTRAL LAB,,STUDY DAY 3,3,2001,3
NIDA-CTN-0002,LB,02_011526,ACTIVE,25,AMPHET,AMPHETAMINES,DRUG SCREEN,NEGATIVE,,,,NEGATIVE," ",," "," ",,,,URINE,CENTRAL LAB,,STUDY DAY 7,7,2001,7
NIDA-CTN-0002,LB,02_011526,ACTIVE,32,AMPHET,AMPHETAMINES,DRUG SCREEN,NEGATIVE,,,,NEGATIVE," ",," "," ",,,,URINE,CENTRAL LAB,,STUDY DAY 11,11,2001,11
NIDA-CTN-0002,LB,02_011526,ACTIVE,39,AMPHET,AMPHETAMINES,DRUG SCREEN,NEGATIVE,,,,NEGATIVE," ",," "," ",,,,URINE,ACCUTEST,,STUDY DAY 14,14,2001,14
NIDA-CTN-0002,LB,02_011526,ACTIVE,49,AMPHET,AMPHETAMINES,DRUG SCREEN,NEGATIVE,,,,NEGATIVE," ",," "," ",,,,URINE,CENTRAL LAB,,STUDY DAY 14,14,2001,14
NIDA-CTN-0002,LB,02_011526,FOLLOW-UP 1,56,AMPHET,AMPHETAMINES,DRUG SCREEN,NEGATIVE,,,,NEGATIVE," ",," "," ",,,,URINE,CENTRAL LAB,,FOLLOW-UP 1,15,2001,32
NIDA-CTN-0002,LB,02_011526,FOLLOW-UP 2,63,AMPHET,AMPHETAMINES,DRUG SCREEN,NEGATIVE,,,,NEGATIVE," ",," "," ",,,,URINE,CENTRAL LAB,,FOLLOW-UP 2,16,2001,109
NIDA-CTN-0002,LB,02_011526,FOLLOW-UP 3,70,AMPHET,AMPHETAMINES,DRUG SCREEN,NEGATIVE,,,,NEGATIVE," ",," "," ",,,,URINE,CENTRAL LAB,,FOLLOW-UP 3,17,2002,211
NIDA-CTN-0002,LB,02_011526,SCREENING,2,BARBIT,BARBITURATES,DRUG SCREEN,NEGATIVE,,,,NEGATIVE," ",," "," ",,,,URINE,ACCUTEST,Y,"BASELINE, ANY DAY PRIOR TO FIRST DOSE",0,2001,-1
NIDA-CTN-0002,LB,02_011526,ACTIVE,40,BARBIT,BARBITURATES,DRUG SCREEN,NEGATIVE,,,,NEGATIVE," ",," "," ",,,,URINE,ACCUTEST,,STUDY DAY 14,14,2001,14
NIDA-CTN-0002,LB,02_011526,SCREENING,3,BENZOD,BENZODIAZEPINES,DRUG SCREEN,NEGATIVE,,,,NEGATIVE," ",," "," ",,,,URINE,ACCUTEST,Y,"BASELINE, ANY DAY PRIOR TO FIRST DOSE",0,2001,-1
NIDA-CTN-0002,LB,02_011526,SCREENING,12,BENZOD,BENZODIAZEPINES,DRUG SCREEN,NEGATIVE,,,,NEGATIVE," ",," "," ",,,,URINE,CENTRAL LAB,Y,"BASELINE, ANY DAY PRIOR TO FIRST DOSE",0,2001,-1
NIDA-CTN-0002,LB,02_011526,ACTIVE,19,BENZOD,BENZODIAZEPINES,DRUG SCREEN,NEGATIVE,,,,NEGATIVE," ",," "," ",,,,URINE,CENTRAL LAB,,STUDY DAY 3,3,2001,3
NIDA-CTN-0002,LB,02_011526,ACTIVE,26,BENZOD,BENZODIAZEPINES,DRUG SCREEN,NEGATIVE,,,,NEGATIVE," ",," "," ",,,,URINE,CENTRAL LAB,,STUDY DAY 7,7,2001,7
NIDA-CTN-0002,LB,02_011526,ACTIVE,33,BENZOD,BENZODIAZEPINES,DRUG SCREEN,NEGATIVE,,,,NEGATIVE," ",," "," ",,,,URINE,CENTRAL LAB,,STUDY DAY 11,11,2001,11
NIDA-CTN-0002,LB,02_011526,ACTIVE,41,BENZOD,BENZODIAZEPINES,DRUG SCREEN,NEGATIVE,,,,NEGATIVE," ",," "," ",,,,URINE,ACCUTEST,,STUDY DAY 14,14,2001,14
NIDA-CTN-0002,LB,02_011526,ACTIVE,50,BENZOD,BENZODIAZEPINES,DRUG SCREEN,NEGATIVE,,,,NEGATIVE," ",," "," ",,,,URINE,CENTRAL LAB,,STUDY DAY 14,14,2001,14
NIDA-CTN-0002,LB,02_011526,FOLLOW-UP 1,57,BENZOD,BENZODIAZEPINES,DRUG SCREEN,NEGATIVE,,,,NEGATIVE," ",," "," ",,,,URINE,CENTRAL LAB,,FOLLOW-UP 1,15,2001,32
NIDA-CTN-0002,LB,02_011526,FOLLOW-UP 2,64,BENZOD,BENZODIAZEPINES,DRUG SCREEN,NEGATIVE,,,,NEGATIVE," ",," "," ",,,,URINE,CENTRAL LAB,,FOLLOW-UP 2,16,2001,109
NIDA-CTN-0002,LB,02_011526,FOLLOW-UP 3,71,BENZOD,BENZODIAZEPINES,DRUG SCREEN,NEGATIVE,,,,NEGATIVE," ",," "," ",,,,URINE,CENTRAL LAB,,FOLLOW-UP 3,17,2002,211
NIDA-CTN-0002,LB,02_011526,SCREENING,4,COCAINE,COCAINE,DRUG SCREEN,NEGATIVE,,,,NEGATIVE," ",," "," ",,,,URINE,ACCUTEST,Y,"BASELINE, ANY DAY PRIOR TO FIRST DOSE",0,2001,-1
NIDA-CTN-0002,LB,02_011526,SCREENING,13,COCAINE,COCAINE,DRUG SCREEN,POSITIVE,,,,POSITIVE," ",," "," ",,,,URINE,CENTRAL LAB,Y,"BASELINE, ANY DAY PRIOR TO FIRST DOSE",0,2001,-1
NIDA-CTN-0002,LB,02_011526,ACTIVE,20,COCAINE,COCAINE,DRUG SCREEN,NEGATIVE,,,,NEGATIVE," ",," "," ",,,,URINE,CENTRAL LAB,,STUDY DAY 3,3,2001,3
NIDA-CTN-0002,LB,02_011526,ACTIVE,27,COCAINE,COCAINE,DRUG SCREEN,NEGATIVE,,,,NEGATIVE," ",," "," ",,,,URINE,CENTRAL LAB,,STUDY DAY 7,7,2001,7
NIDA-CTN-0002,LB,02_011526,ACTIVE,34,COCAINE,COCAINE,DRUG SCREEN,POSITIVE,,,,POSITIVE," ",," "," ",,,,URINE,CENTRAL LAB,,STUDY DAY 11,11,2001,11
NIDA-CTN-0002,LB,02_011526,ACTIVE,42,COCAINE,COCAINE,DRUG SCREEN,NEGATIVE,,,,NEGATIVE," ",," "," ",,,,URINE,ACCUTEST,,STUDY DAY 14,14,2001,14
NIDA-CTN-0002,LB,02_011526,ACTIVE,51,COCAINE,COCAINE,DRUG SCREEN,POSITIVE,,,,POSITIVE," ",," "," ",,,,URINE,CENTRAL LAB,,STUDY DAY 14,14,2001,14
NIDA-CTN-0002,LB,02_011526,FOLLOW-UP 1,58,COCAINE,COCAINE,DRUG SCREEN,POSITIVE,,,,POSITIVE," ",," "," ",,,,URINE,CENTRAL LAB,,FOLLOW-UP 1,15,2001,32
NIDA-CTN-0002,LB,02_011526,FOLLOW-UP 2,65,COCAINE,COCAINE,DRUG SCREEN,POSITIVE,,,,POSITIVE," ",," "," ",,,,URINE,CENTRAL LAB,,FOLLOW-UP 2,16,2001,109
NIDA-CTN-0002,LB,02_011526,FOLLOW-UP 3,72,COCAINE,COCAINE,DRUG SCREEN,POSITIVE,,,,POSITIVE," ",," "," ",,,,URINE,CENTRAL LAB,,FOLLOW-UP 3,17,2002,211
NIDA-CTN-0002,LB,02_011526,SCREENING,14,CREAT,CREATININE,CHEMISTRY,91.4,mg/dL,,,91.4,91.4,mg/dL," "," ",,,,URINE,CENTRAL LAB,Y,"BASELINE, ANY DAY PRIOR TO FIRST DOSE",0,2001,-1
NIDA-CTN-0002,LB,02_011526,ACTIVE,21,CREAT,CREATININE,CHEMISTRY,157.3,mg/dL,,,157.3,157.3,mg/dL," "," ",,,,URINE,CENTRAL LAB,,STUDY DAY 3,3,2001,3
NIDA-CTN-0002,LB,02_011526,ACTIVE,28,CREAT,CREATININE,CHEMISTRY,156.6,mg/dL,,,156.6,156.6,mg/dL," "," ",,,,URINE,CENTRAL LAB,,STUDY DAY 7,7,2001,7
NIDA-CTN-0002,LB,02_011526,ACTIVE,35,CREAT,CREATININE,CHEMISTRY,202.5,mg/dL,,,202.5,202.5,mg/dL," "," ",,,,URINE,CENTRAL LAB,,STUDY DAY 11,11,2001,11
NIDA-CTN-0002,LB,02_011526,ACTIVE,52,CREAT,CREATININE,CHEMISTRY,120.9,mg/dL,,,120.9,120.9,mg/dL," "," ",,,,URINE,CENTRAL LAB,,STUDY DAY 14,14,2001,14
NIDA-CTN-0002,LB,02_011526,FOLLOW-UP 1,59,CREAT,CREATININE,CHEMISTRY,161.9,mg/dL,,,161.9,161.9,mg/dL," "," ",,,,URINE,CENTRAL LAB,,FOLLOW-UP 1,15,2001,32
NIDA-CTN-0002,LB,02_011526,FOLLOW-UP 2,66,CREAT,CREATININE,CHEMISTRY,148.1,mg/dL,,,148.1,148.1,mg/dL," "," ",,,,URINE,CENTRAL LAB,,FOLLOW-UP 2,16,2001,109
NIDA-CTN-0002,LB,02_011526,FOLLOW-UP 3,73,CREAT,CREATININE,CHEMISTRY,90.6,mg/dL,,,90.6,90.6,mg/dL," "," ",,,,URINE,CENTRAL LAB,,FOLLOW-UP 3,17,2002,211
NIDA-CTN-0002,LB,02_011526,SCREENING,5,METH,METHAMPHETAMINE,DRUG SCREEN,NEGATIVE,,,,NEGATIVE," ",," "," ",,,,URINE,ACCUTEST,Y,"BASELINE, ANY DAY PRIOR TO FIRST DOSE",0,2001,-1
NIDA-CTN-0002,LB,02_011526,ACTIVE,43,METH,METHAMPHETAMINE,DRUG SCREEN,NEGATIVE,,,,NEGATIVE," ",," "," ",,,,URINE,ACCUTEST,,STUDY DAY 14,14,2001,14
NIDA-CTN-0002,LB,02_011526,SCREENING,6,METHADON,METHADONE,DRUG SCREEN,POSITIVE,,,,POSITIVE," ",," "," ",,,,URINE,ACCUTEST,Y,"BASELINE, ANY DAY PRIOR TO FIRST DOSE",0,2001,-1
NIDA-CTN-0002,LB,02_011526,SCREENING,15,METHADON,METHADONE,DRUG SCREEN,NEGATIVE,,,,NEGATIVE," ",," "," ",,,,URINE,CENTRAL LAB,Y,"BASELINE, ANY DAY PRIOR TO FIRST DOSE",0,2001,-1
NIDA-CTN-0002,LB,02_011526,ACTIVE,22,METHADON,METHADONE,DRUG SCREEN,NEGATIVE,,,,NEGATIVE," ",," "," ",,,,URINE,CENTRAL LAB,,STUDY DAY 3,3,2001,3
NIDA-CTN-0002,LB,02_011526,ACTIVE,29,METHADON,METHADONE,DRUG SCREEN,NEGATIVE,,,,NEGATIVE," ",," "," ",,,,URINE,CENTRAL LAB,,STUDY DAY 7,7,2001,7
NIDA-CTN-0002,LB,02_011526,ACTIVE,36,METHADON,METHADONE,DRUG SCREEN,NEGATIVE,,,,NEGATIVE," ",," "," ",,,,URINE,CENTRAL LAB,,STUDY DAY 11,11,2001,11
NIDA-CTN-0002,LB,02_011526,ACTIVE,44,METHADON,METHADONE,DRUG SCREEN,NEGATIVE,,,,NEGATIVE," ",," "," ",,,,URINE,ACCUTEST,,STUDY DAY 14,14,2001,14
NIDA-CTN-0002,LB,02_011526,ACTIVE,53,METHADON,METHADONE,DRUG SCREEN,NEGATIVE,,,,NEGATIVE," ",," "," ",,,,URINE,CENTRAL LAB,,STUDY DAY 14,14,2001,14
NIDA-CTN-0002,LB,02_011526,FOLLOW-UP 1,60,METHADON,METHADONE,DRUG SCREEN,NEGATIVE,,,,NEGATIVE," ",," "," ",,,,URINE,CENTRAL LAB,,FOLLOW-UP 1,15,2001,32
NIDA-CTN-0002,LB,02_011526,FOLLOW-UP 2,67,METHADON,METHADONE,DRUG SCREEN,NEGATIVE,,,,NEGATIVE," ",," "," ",,,,URINE,CENTRAL LAB,,FOLLOW-UP 2,16,2001,109
NIDA-CTN-0002,LB,02_011526,FOLLOW-UP 3,74,METHADON,METHADONE,DRUG SCREEN,NEGATIVE,,,,NEGATIVE," ",," "," ",,,,URINE,CENTRAL LAB,,FOLLOW-UP 3,17,2002,211
NIDA-CTN-0002,LB,02_011526,SCREENING,7,MORPHINE,MORPHINE,DRUG SCREEN,NEGATIVE,,,,NEGATIVE," ",," "," ",,,,URINE,ACCUTEST,Y,"BASELINE, ANY DAY PRIOR TO FIRST DOSE",0,2001,-1
NIDA-CTN-0002,LB,02_011526,ACTIVE,45,MORPHINE,MORPHINE,DRUG SCREEN,NEGATIVE,,,,NEGATIVE," ",," "," ",,,,URINE,ACCUTEST,,STUDY DAY 14,14,2001,14
NIDA-CTN-0002,LB,02_011526,SCREENING,16,OPIATE,OPIATE,DRUG SCREEN,POSITIVE,,,,POSITIVE," ",," "," ",,,,URINE,CENTRAL LAB,Y,"BASELINE, ANY DAY PRIOR TO FIRST DOSE",0,2001,-1
NIDA-CTN-0002,LB,02_011526,ACTIVE,23,OPIATE,OPIATE,DRUG SCREEN,POSITIVE,,,,POSITIVE," ",," "," ",,,,URINE,CENTRAL LAB,,STUDY DAY 3,3,2001,3
NIDA-CTN-0002,LB,02_011526,ACTIVE,30,OPIATE,OPIATE,DRUG SCREEN,NEGATIVE,,,,NEGATIVE," ",," "," ",,,,URINE,CENTRAL LAB,,STUDY DAY 7,7,2001,7
NIDA-CTN-0002,LB,02_011526,ACTIVE,37,OPIATE,OPIATE,DRUG SCREEN,POSITIVE,,,,POSITIVE," ",," "," ",,,,URINE,CENTRAL LAB,,STUDY DAY 11,11,2001,11
NIDA-CTN-0002,LB,02_011526,ACTIVE,54,OPIATE,OPIATE,DRUG SCREEN,POSITIVE,,,,POSITIVE," ",," "," ",,,,URINE,CENTRAL LAB,,STUDY DAY 14,14,2001,14
NIDA-CTN-0002,LB,02_011526,FOLLOW-UP 1,61,OPIATE,OPIATE,DRUG SCREEN,POSITIVE,,,,POSITIVE," ",," "," ",,,,URINE,CENTRAL LAB,,FOLLOW-UP 1,15,2001,32
NIDA-CTN-0002,LB,02_011526,FOLLOW-UP 2,68,OPIATE,OPIATE,DRUG SCREEN,POSITIVE,,,,POSITIVE," ",," "," ",,,,URINE,CENTRAL LAB,,FOLLOW-UP 2,16,2001,109
NIDA-CTN-0002,LB,02_011526,FOLLOW-UP 3,75,OPIATE,OPIATE,DRUG SCREEN,POSITIVE,,,,POSITIVE," ",," "," ",,,,URINE,CENTRAL LAB,,FOLLOW-UP 3,17,2002,211
NIDA-CTN-0002,LB,02_011526,SCREENING,8,PCP,PCP,DRUG SCREEN,POSITIVE,,,,POSITIVE," ",," "," ",,,,URINE,ACCUTEST,Y,"BASELINE, ANY DAY PRIOR TO FIRST DOSE",0,2001,-1
NIDA-CTN-0002,LB,02_011526,ACTIVE,46,PCP,PCP,DRUG SCREEN,POSITIVE,,,,POSITIVE," ",," "," ",,,,URINE,ACCUTEST,,STUDY DAY 14,14,2001,14
NIDA-CTN-0002,LB,02_011526,SCREENING,9,TCA,TCA,DRUG SCREEN,NEGATIVE,,,,NEGATIVE," ",," "," ",,,,URINE,ACCUTEST,Y,"BASELINE, ANY DAY PRIOR TO FIRST DOSE",0,2001,-1
NIDA-CTN-0002,LB,02_011526,ACTIVE,47,TCA,TCA,DRUG SCREEN,NEGATIVE,,,,NEGATIVE," ",," "," ",,,,URINE,ACCUTEST,,STUDY DAY 14,14,2001,14
NIDA-CTN-0002,LB,02_011526,SCREENING,10,THC,THC,DRUG SCREEN,POSITIVE,,,,POSITIVE," ",," "," ",,,,URINE,ACCUTEST,Y,"BASELINE, ANY DAY PRIOR TO FIRST DOSE",0,2001,-1
NIDA-CTN-0002,LB,02_011526,SCREENING,17,THC,THC,DRUG SCREEN,POSITIVE,,,,POSITIVE," ",," "," ",,,,URINE,CENTRAL LAB,Y,"BASELINE, ANY DAY PRIOR TO FIRST DOSE",0,2001,-1
NIDA-CTN-0002,LB,02_011526,ACTIVE,24,THC,THC,DRUG SCREEN,POSITIVE,,,,POSITIVE," ",," "," ",,,,URINE,CENTRAL LAB,,STUDY DAY 3,3,2001,3
NIDA-CTN-0002,LB,02_011526,ACTIVE,31,THC,THC,DRUG SCREEN,NEGATIVE,,,,NEGATIVE," ",," "," ",,,,URINE,CENTRAL LAB,,STUDY DAY 7,7,2001,7
NIDA-CTN-0002,LB,02_011526,ACTIVE,38,THC,THC,DRUG SCREEN,NEGATIVE,,,,NEGATIVE," ",," "," ",,,,URINE,CENTRAL LAB,,STUDY DAY 11,11,2001,11
NIDA-CTN-0002,LB,02_011526,ACTIVE,48,THC,THC,DRUG SCREEN,NEGATIVE,,,,NEGATIVE," ",," "," ",,,,URINE,ACCUTEST,,STUDY DAY 14,14,2001,14
NIDA-CTN-0002,LB,02_011526,ACTIVE,55,THC,THC,DRUG SCREEN,NEGATIVE,,,,NEGATIVE," ",," "," ",,,,URINE,CENTRAL LAB,,STUDY DAY 14,14,2001,14
NIDA-CTN-0002,LB,02_011526,FOLLOW-UP 1,62,THC,THC,DRUG SCREEN,NEGATIVE,,,,NEGATIVE," ",," "," ",,,,URINE,CENTRAL LAB,,FOLLOW-UP 1,15,2001,32
NIDA-CTN-0002,LB,02_011526,FOLLOW-UP 2,69,THC,THC,DRUG SCREEN,NEGATIVE,,,,NEGATIVE," ",," "," ",,,,URINE,CENTRAL LAB,,FOLLOW-UP 2,16,2001,109
NIDA-CTN-0002,LB,02_011526,FOLLOW-UP 3,76,THC,THC,DRUG SCREEN,NEGATIVE,,,,NEGATIVE," ",," "," ",,,,URINE,CENTRAL LAB,,FOLLOW-UP 3,17,2002,211
NIDA-CTN-0002,LB,02_011902,SCREENING,1,AMPHET,AMPHETAMINES,DRUG SCREEN,NEGATIVE,,,,NEGATIVE," ",," "," ",,,,URINE,ACCUTEST,Y,"BASELINE, ANY DAY PRIOR TO FIRST DOSE",0,2001,1
NIDA-CTN-0002,LB,02_011902,SCREENING,11,AMPHET,AMPHETAMINES,DRUG SCREEN,NEGATIVE,,,,NEGATIVE," ",," "," ",,,,URINE,CENTRAL LAB,Y,"BASELINE, ANY DAY PRIOR TO FIRST DOSE",0,2001,1
NIDA-CTN-0002,LB,02_011902,ACTIVE,18,AMPHET,AMPHETAMINES,DRUG SCREEN,NEGATIVE,,,,NEGATIVE," ",," "," ",,,,URINE,CENTRAL LAB,,STUDY DAY 3,3,2001,3
NIDA-CTN-0002,LB,02_011902,ACTIVE,25,AMPHET,AMPHETAMINES,DRUG SCREEN,NEGATIVE,,,,NEGATIVE," ",," "," ",,,,URINE,CENTRAL LAB,,STUDY DAY 7,7,2001,7
NIDA-CTN-0002,LB,02_011902,ACTIVE,32,AMPHET,AMPHETAMINES,DRUG SCREEN,NEGATIVE,,,,NEGATIVE," ",," "," ",,,,URINE,CENTRAL LAB,,STUDY DAY 10,10,2001,10
NIDA-CTN-0002,LB,02_011902,FOLLOW-UP 1,40,AMPHET,AMPHETAMINES,DRUG SCREEN,NEGATIVE,,,,NEGATIVE," ",," "," ",,,,URINE,CENTRAL LAB,,FOLLOW-UP 1,15,2001,31
NIDA-CTN-0002,LB,02_011902,SCREENING,2,BARBIT,BARBITURATES,DRUG SCREEN,NEGATIVE,,,,NEGATIVE," ",," "," ",,,,URINE,ACCUTEST,Y,"BASELINE, ANY DAY PRIOR TO FIRST DOSE",0,2001,1
NIDA-CTN-0002,LB,02_011902,SCREENING,3,BENZOD,BENZODIAZEPINES,DRUG SCREEN,NEGATIVE,,,,NEGATIVE," ",," "," ",,,,URINE,ACCUTEST,Y,"BASELINE, ANY DAY PRIOR TO FIRST DOSE",0,2001,1
NIDA-CTN-0002,LB,02_011902,SCREENING,12,BENZOD,BENZODIAZEPINES,DRUG SCREEN,NEGATIVE,,,,NEGATIVE," ",," "," ",,,,URINE,CENTRAL LAB,Y,"BASELINE, ANY DAY PRIOR TO FIRST DOSE",0,2001,1
NIDA-CTN-0002,LB,02_011902,ACTIVE,19,BENZOD,BENZODIAZEPINES,DRUG SCREEN,NEGATIVE,,,,NEGATIVE," ",," "," ",,,,URINE,CENTRAL LAB,,STUDY DAY 3,3,2001,3
NIDA-CTN-0002,LB,02_011902,ACTIVE,26,BENZOD,BENZODIAZEPINES,DRUG SCREEN,NEGATIVE,,,,NEGATIVE," ",," "," ",,,,URINE,CENTRAL LAB,,STUDY DAY 7,7,2001,7
NIDA-CTN-0002,LB,02_011902,ACTIVE,33,BENZOD,BENZODIAZEPINES,DRUG SCREEN,NEGATIVE,,,,NEGATIVE," ",," "," ",,,,URINE,CENTRAL LAB,,STUDY DAY 10,10,2001,10
NIDA-CTN-0002,LB,02_011902,FOLLOW-UP 1,41,BENZOD,BENZODIAZEPINES,DRUG SCREEN,NEGATIVE,,,,NEGATIVE," ",," "," ",,,,URINE,CENTRAL LAB,,FOLLOW-UP 1,15,2001,31
NIDA-CTN-0002,LB,02_011902,SCREENING,4,COCAINE,COCAINE,DRUG SCREEN,POSITIVE,,,,POSITIVE," ",," "," ",,,,URINE,ACCUTEST,Y,"BASELINE, ANY DAY PRIOR TO FIRST DOSE",0,2001,1
NIDA-CTN-0002,LB,02_011902,SCREENING,13,COCAINE,COCAINE,DRUG SCREEN,POSITIVE,,,,POSITIVE," ",," "," ",,,,URINE,CENTRAL LAB,Y,"BASELINE, ANY DAY PRIOR TO FIRST DOSE",0,2001,1
NIDA-CTN-0002,LB,02_011902,ACTIVE,20,COCAINE,COCAINE,DRUG SCREEN,NEGATIVE,,,,NEGATIVE," ",," "," ",,,,URINE,CENTRAL LAB,,STUDY DAY 3,3,2001,3
NIDA-CTN-0002,LB,02_011902,ACTIVE,27,COCAINE,COCAINE,DRUG SCREEN,NEGATIVE,,,,NEGATIVE," ",," "," ",,,,URINE,CENTRAL LAB,,STUDY DAY 7,7,2001,7
NIDA-CTN-0002,LB,02_011902,ACTIVE,34,COCAINE,COCAINE,DRUG SCREEN,NEGATIVE,,,,NEGATIVE," ",," "," ",,,,URINE,CENTRAL LAB,,STUDY DAY 10,10,2001,10
NIDA-CTN-0002,LB,02_011902,FOLLOW-UP 1,42,COCAINE,COCAINE,DRUG SCREEN,NEGATIVE,,,,NEGATIVE," ",," "," ",,,,URINE,CENTRAL LAB,,FOLLOW-UP 1,15,2001,31
NIDA-CTN-0002,LB,02_011902,SCREENING,14,CREAT,CREATININE,CHEMISTRY,140.2,mg/dL,,,140.2,140.2,mg/dL," "," ",,,,URINE,CENTRAL LAB,Y,"BASELINE, ANY DAY PRIOR TO FIRST DOSE",0,2001,1
NIDA-CTN-0002,LB,02_011902,ACTIVE,21,CREAT,CREATININE,CHEMISTRY,147.5,mg/dL,,,147.5,147.5,mg/dL," "," ",,,,URINE,CENTRAL LAB,,STUDY DAY 3,3,2001,3
NIDA-CTN-0002,LB,02_011902,ACTIVE,28,CREAT,CREATININE,CHEMISTRY,167.6,mg/dL,,,167.6,167.6,mg/dL," "," ",,,,URINE,CENTRAL LAB,,STUDY DAY 7,7,2001,7
NIDA-CTN-0002,LB,02_011902,ACTIVE,35,CREAT,CREATININE,CHEMISTRY,111.1,mg/dL,,,111.1,111.1,mg/dL," "," ",,,,URINE,CENTRAL LAB,,STUDY DAY 10,10,2001,10
NIDA-CTN-0002,LB,02_011902,FOLLOW-UP 1,43,CREAT,CREATININE,CHEMISTRY,114.5,mg/dL,,,114.5,114.5,mg/dL," "," ",,,,URINE,CENTRAL LAB,,FOLLOW-UP 1,15,2001,31
NIDA-CTN-0002,LB,02_011902,SCREENING,5,METH,METHAMPHETAMINE,DRUG SCREEN,NEGATIVE,,,,NEGATIVE," ",," "," ",,,,URINE,ACCUTEST,Y,"BASELINE, ANY DAY PRIOR TO FIRST DOSE",0,2001,1
NIDA-CTN-0002,LB,02_011902,SCREENING,6,METHADON,METHADONE,DRUG SCREEN,NEGATIVE,,,,NEGATIVE," ",," "," ",,,,URINE,ACCUTEST,Y,"BASELINE, ANY DAY PRIOR TO FIRST DOSE",0,2001,1
NIDA-CTN-0002,LB,02_011902,SCREENING,15,METHADON,METHADONE,DRUG SCREEN,NEGATIVE,,,,NEGATIVE," ",," "," ",,,,URINE,CENTRAL LAB,Y,"BASELINE, ANY DAY PRIOR TO FIRST DOSE",0,2001,1
NIDA-CTN-0002,LB,02_011902,ACTIVE,22,METHADON,METHADONE,DRUG SCREEN,NEGATIVE,,,,NEGATIVE," ",," "," ",,,,URINE,CENTRAL LAB,,STUDY DAY 3,3,2001,3
NIDA-CTN-0002,LB,02_011902,ACTIVE,29,METHADON,METHADONE,DRUG SCREEN,NEGATIVE,,,,NEGATIVE," ",," "," ",,,,URINE,CENTRAL LAB,,STUDY DAY 7,7,2001,7
NIDA-CTN-0002,LB,02_011902,ACTIVE,36,METHADON,METHADONE,DRUG SCREEN,NEGATIVE,,,,NEGATIVE," ",," "," ",,,,URINE,CENTRAL LAB,,STUDY DAY 10,10,2001,10
NIDA-CTN-0002,LB,02_011902,FOLLOW-UP 1,44,METHADON,METHADONE,DRUG SCREEN,NEGATIVE,,,,NEGATIVE," ",," "," ",,,,URINE,CENTRAL LAB,,FOLLOW-UP 1,15,2001,31
NIDA-CTN-0002,LB,02_011902,SCREENING,7,MORPHINE,MORPHINE,DRUG SCREEN,POSITIVE,,,,POSITIVE," ",," "," ",,,,URINE,ACCUTEST,Y,"BASELINE, ANY DAY PRIOR TO FIRST DOSE",0,2001,1
NIDA-CTN-0002,LB,02_011902,ACTIVE,39,NONE,NONE,DRUG SCREEN,,,,,," ",," "," ",,NOT DONE,PATIENT DID NOT ATTEND,URINE,CENTRAL LAB,,STUDY DAY 14,14,," "
NIDA-CTN-0002,LB,02_011902,SCREENING,16,OPIATE,OPIATE,DRUG SCREEN,POSITIVE,,,,POSITIVE," ",," "," ",,,,URINE,CENTRAL LAB,Y,"BASELINE, ANY DAY PRIOR TO FIRST DOSE",0,2001,1
NIDA-CTN-0002,LB,02_011902,ACTIVE,23,OPIATE,OPIATE,DRUG SCREEN,POSITIVE,,,,POSITIVE," ",," "," ",,,,URINE,CENTRAL LAB,,STUDY DAY 3,3,2001,3
NIDA-CTN-0002,LB,02_011902,ACTIVE,30,OPIATE,OPIATE,DRUG SCREEN,POSITIVE,,,,POSITIVE," ",," "," ",,,,URINE,CENTRAL LAB,,STUDY DAY 7,7,2001,7
NIDA-CTN-0002,LB,02_011902,ACTIVE,37,OPIATE,OPIATE,DRUG SCREEN,POSITIVE,,,,POSITIVE," ",," "," ",,,,URINE,CENTRAL LAB,,STUDY DAY 10,10,2001,10
NIDA-CTN-0002,LB,02_011902,FOLLOW-UP 1,45,OPIATE,OPIATE,DRUG SCREEN,POSITIVE,,,,POSITIVE," ",," "," ",,,,URINE,CENTRAL LAB,,FOLLOW-UP 1,15,2001,31
NIDA-CTN-0002,LB,02_011902,SCREENING,8,PCP,PCP,DRUG SCREEN,NEGATIVE,,,,NEGATIVE," ",," "," ",,,,URINE,ACCUTEST,Y,"BASELINE, ANY DAY PRIOR TO FIRST DOSE",0,2001,1
NIDA-CTN-0002,LB,02_011902,SCREENING,9,TCA,TCA,DRUG SCREEN,NEGATIVE,,,,NEGATIVE," ",," "," ",,,,URINE,ACCUTEST,Y,"BASELINE, ANY DAY PRIOR TO FIRST DOSE",0,2001,1
NIDA-CTN-0002,LB,02_011902,SCREENING,10,THC,THC,DRUG SCREEN,NEGATIVE,,,,NEGATIVE," ",," "," ",,,,URINE,ACCUTEST,Y,"BASELINE, ANY DAY PRIOR TO FIRST DOSE",0,2001,1
NIDA-CTN-0002,LB,02_011902,SCREENING,17,THC,THC,DRUG SCREEN,NEGATIVE,,,,NEGATIVE," ",," "," ",,,,URINE,CENTRAL LAB,Y,"BASELINE, ANY DAY PRIOR TO FIRST DOSE",0,2001,1
NIDA-CTN-0002,LB,02_011902,ACTIVE,24,THC,THC,DRUG SCREEN,NEGATIVE,,,,NEGATIVE," ",," "," ",,,,URINE,CENTRAL LAB,,STUDY DAY 3,3,2001,3
NIDA-CTN-0002,LB,02_011902,ACTIVE,31,THC,THC,DRUG SCREEN,NEGATIVE,,,,NEGATIVE," ",," "," ",,,,URINE,CENTRAL LAB,,STUDY DAY 7,7,2001,7
NIDA-CTN-0002,LB,02_011902,ACTIVE,38,THC,THC,DRUG SCREEN,NEGATIVE,,,,NEGATIVE," ",," "," ",,,,URINE,CENTRAL LAB,,STUDY DAY 10,10,2001,10
NIDA-CTN-0002,LB,02_011902,FOLLOW-UP 1,46,THC,THC,DRUG SCREEN,NEGATIVE,,,,NEGATIVE," ",," "," ",,,,URINE,CENTRAL LAB,,FOLLOW-UP 1,15,2001,31
NIDA-CTN-0002,LB,02_012064,SCREENING,1,AMPHET,AMPHETAMINES,DRUG SCREEN,NEGATIVE,,,,NEGATIVE," ",," "," ",,,,URINE,ACCUTEST,Y,"BASELINE, ANY DAY PRIOR TO FIRST DOSE",0,2001,1
NIDA-CTN-0002,LB,02_012064,ACTIVE,12,AMPHET,AMPHETAMINES,DRUG SCREEN,NEGATIVE,,,,NEGATIVE," ",," "," ",,,,URINE,CENTRAL LAB,,STUDY DAY 3,3,2001,3
NIDA-CTN-0002,LB,02_012064,ACTIVE,19,AMPHET,AMPHETAMINES,DRUG SCREEN,NEGATIVE,,,,NEGATIVE," ",," "," ",,,,URINE,CENTRAL LAB,,STUDY DAY 8,8,2001,8
NIDA-CTN-0002,LB,02_012064,ACTIVE,26,AMPHET,AMPHETAMINES,DRUG SCREEN,NEGATIVE,,,,NEGATIVE," ",," "," ",,,,URINE,CENTRAL LAB,,STUDY DAY 11,11,2001,11
NIDA-CTN-0002,LB,02_012064,ACTIVE,33,AMPHET,AMPHETAMINES,DRUG SCREEN,NEGATIVE,,,,NEGATIVE," ",," "," ",,,,URINE,ACCUTEST,,STUDY DAY 14,14,2001,14
NIDA-CTN-0002,LB,02_012064,ACTIVE,43,AMPHET,AMPHETAMINES,DRUG SCREEN,NEGATIVE,,,,NEGATIVE," ",," "," ",,,,URINE,CENTRAL LAB,,STUDY DAY 14,14,2001,14
NIDA-CTN-0002,LB,02_012064,FOLLOW-UP 1,50,AMPHET,AMPHETAMINES,DRUG SCREEN,NEGATIVE,,,,NEGATIVE," ",," "," ",,,,URINE,CENTRAL LAB,,FOLLOW-UP 1,15,2001,37
NIDA-CTN-0002,LB,02_012064,FOLLOW-UP 2,57,AMPHET,AMPHETAMINES,DRUG SCREEN,NEGATIVE,,,,NEGATIVE," ",," "," ",,,,URINE,CENTRAL LAB,,FOLLOW-UP 2,16,2002,95
NIDA-CTN-0002,LB,02_012064,FOLLOW-UP 3,64,AMPHET,AMPHETAMINES,DRUG SCREEN,NEGATIVE,,,,NEGATIVE," ",," "," ",,,,URINE,CENTRAL LAB,,FOLLOW-UP 3,17,2002,182
NIDA-CTN-0002,LB,02_012064,SCREENING,2,BARBIT,BARBITURATES,DRUG SCREEN,NEGATIVE,,,,NEGATIVE," ",," "," ",,,,URINE,ACCUTEST,Y,"BASELINE, ANY DAY PRIOR TO FIRST DOSE",0,2001,1
