STUDYID,DOMAIN,USUBJID,AEDTC,AEDY,EPOCH,VISIT,VISITNUM,AESEQ,AETERM,AEDECOD,AEBODSYS,AESEV,AESER,AEACN,AEACNOTH,AEREL,AEOUT,AESCONG,AESDISAB,AESDTH,AESHOSP,AESLIFE,AESMIE,AECONTRT,AESTDTC,AEENDTC,AESTDY,AEENDY,AEENRF
NIDA-CTN-0001,AE,01_000579,2001,1,ACTIVE,STUDY DAY 1,1,163,ACHES,PAIN NOS,GENERAL DISORDERS AND ADMINISTRATION SITE CONDITIONS,MODERATE,N,NONE,THERAPY PHARMACOLOGY (OTC OR RX) THERAPY NON-PHARMACOLOGY,REMOTELY,"RESOLVED, NO SEQUELAE",,,,,,,Y,2001,2001,1,1,
NIDA-CTN-0001,AE,01_000579,2001,1,ACTIVE,STUDY DAY 1,1,164,ACHES IN LEG MUSCLES,MYALGIA,MUSCULOSKELETAL AND CONNECTIVE TISSUE DISORDERS,MODERATE,N,NONE,THERAPY PHARMACOLOGY (OTC OR RX) THERAPY NON-PHARMACOLOGY,REMOTELY,"RESOLVED, NO SEQUELAE",,,,,,,Y,2001,2001,1,2,
NIDA-CTN-0001,AE,01_000579,2001,2,ACTIVE,STUDY DAY 2,2,165,ACHY  BACK,BACK PAIN,MUSCULOSKELETAL AND CONNECTIVE TISSUE DISORDERS,MODERATE,N,NONE,THERAPY PHARMACOLOGY (OTC OR RX) THERAPY NON-PHARMACOLOGY,REMOTELY,"RESOLVED, NO SEQUELAE",,,,,,,Y,2001,2001,2,3,
NIDA-CTN-0001,AE,01_000579,2001,29,FOLLOW-UP 1,FOLLOW-UP 1,15,166,ANXIETY,ANXIETY NEC,PSYCHIATRIC DISORDERS,MODERATE,N,NONE,THERAPY PHARMACOLOGY (OTC OR RX) THERAPY NON-PHARMACOLOGY,DEFINITELY NOT,,,,,,,,Y,,," "," ",
NIDA-CTN-0001,AE,01_000579,2001,2,ACTIVE,STUDY DAY 2,2,167,ANXIETY,ANXIETY NEC,PSYCHIATRIC DISORDERS,MODERATE,N,NONE,THERAPY PHARMACOLOGY (OTC OR RX) THERAPY NON-PHARMACOLOGY,REMOTELY,"RESOLVED, NO SEQUELAE",,,,,,,Y,2001,2001,2,3,
NIDA-CTN-0001,AE,01_000579,2001,29,FOLLOW-UP 1,FOLLOW-UP 1,15,168,BACK PAIN,BACK PAIN,MUSCULOSKELETAL AND CONNECTIVE TISSUE DISORDERS,MODERATE,N,NONE,THERAPY PHARMACOLOGY (OTC OR RX) THERAPY NON-PHARMACOLOGY,REMOTELY,"NOT YET RESOLVED, BUT IMPROVING",,,,,,,Y,2001,,29," ",
NIDA-CTN-0001,AE,01_000579,2001,1,ACTIVE,STUDY DAY 1,1,169,CHILLS,RIGORS,GENERAL DISORDERS AND ADMINISTRATION SITE CONDITIONS,MODERATE,N,NONE,THERAPY PHARMACOLOGY (OTC OR RX) THERAPY NON-PHARMACOLOGY,REMOTELY,"RESOLVED, NO SEQUELAE",,,,,,,Y,2001,2001,1,2,
NIDA-CTN-0001,AE,01_000579,2001,1,ACTIVE,STUDY DAY 1,1,170,DIARRHEA,DIARRHOEA,GASTROINTESTINAL DISORDERS,MODERATE,N,NONE,THERAPY PHARMACOLOGY (OTC OR RX) THERAPY NON-PHARMACOLOGY,REMOTELY,"RESOLVED, NO SEQUELAE",,,,,,,Y,2001,2001,1,2,
NIDA-CTN-0001,AE,01_000579,2001,2,ACTIVE,STUDY DAY 2,2,171,HEADACHE,HEADACHE,NERVOUS SYSTEM DISORDERS,MODERATE,N,NONE,THERAPY PHARMACOLOGY (OTC OR RX) THERAPY NON-PHARMACOLOGY,REMOTELY,"RESOLVED, NO SEQUELAE",,,,,,,Y,2001,2001,2,3,
NIDA-CTN-0001,AE,01_000579,2001,29,FOLLOW-UP 1,FOLLOW-UP 1,15,172,INSONMIA,INSOMNIA,PSYCHIATRIC DISORDERS,MODERATE,N,NONE,THERAPY PHARMACOLOGY (OTC OR RX) THERAPY NON-PHARMACOLOGY,DEFINITELY NOT,,,,,,,,Y,,," "," ",
NIDA-CTN-0001,AE,01_000579,2001,2,ACTIVE,STUDY DAY 2,2,173,LEG  SPASM,PAIN IN LIMB,MUSCULOSKELETAL AND CONNECTIVE TISSUE DISORDERS,MODERATE,N,NONE,THERAPY PHARMACOLOGY (OTC OR RX) THERAPY NON-PHARMACOLOGY,REMOTELY,"RESOLVED, NO SEQUELAE",,,,,,,Y,2001,2001,2,3,
NIDA-CTN-0001,AE,01_000579,2001,29,FOLLOW-UP 1,FOLLOW-UP 1,15,174,MUSCLE ACHES,MYALGIA,MUSCULOSKELETAL AND CONNECTIVE TISSUE DISORDERS,MODERATE,N,NONE,THERAPY PHARMACOLOGY (OTC OR RX) THERAPY NON-PHARMACOLOGY,DEFINITELY NOT,"NOT YET RESOLVED, BUT IMPROVING",,,,,,,Y,2001,,29," ",
NIDA-CTN-0001,AE,01_000579,2001,2,ACTIVE,STUDY DAY 2,2,175,MUSCLE PAIN,MYALGIA,MUSCULOSKELETAL AND CONNECTIVE TISSUE DISORDERS,MODERATE,N,NONE,THERAPY PHARMACOLOGY (OTC OR RX) THERAPY NON-PHARMACOLOGY,REMOTELY,"NOT YET RESOLVED, BUT IMPROVING",,,,,,,Y,2001,,2," ",
NIDA-CTN-0001,AE,01_000579,2001,2,ACTIVE,STUDY DAY 2,2,176,NAUSEA,NAUSEA,GASTROINTESTINAL DISORDERS,MODERATE,N,NONE,THERAPY PHARMACOLOGY (OTC OR RX) THERAPY NON-PHARMACOLOGY,REMOTELY,"RESOLVED, NO SEQUELAE",,,,,,,Y,2001,2001,2,3,
NIDA-CTN-0001,AE,01_000579,2001,1,ACTIVE,STUDY DAY 1,1,177,SPASM,MUSCLE SPASMS,MUSCULOSKELETAL AND CONNECTIVE TISSUE DISORDERS,MODERATE,N,NONE,THERAPY PHARMACOLOGY (OTC OR RX) THERAPY NON-PHARMACOLOGY,REMOTELY,"RESOLVED, NO SEQUELAE",,,,,,,Y,2001,2001,1,3,
NIDA-CTN-0001,AE,01_000579,2001,1,ACTIVE,STUDY DAY 1,1,178,SWEATING,HYPERHIDROSIS,SKIN AND SUBCUTANEOUS TISSUE DISORDERS,MODERATE,N,NONE,THERAPY PHARMACOLOGY (OTC OR RX) THERAPY NON-PHARMACOLOGY,REMOTELY,"NOT YET RESOLVED, BUT IMPROVING",,,,,,,Y,2001,2001,1,2,
NIDA-CTN-0001,AE,01_000579,2001,3,ACTIVE,STUDY DAY 3,3,179,SWEATS,SWEATING INCREASED,SKIN AND SUBCUTANEOUS TISSUE DISORDERS,MODERATE,N,NONE,THERAPY PHARMACOLOGY (OTC OR RX) THERAPY NON-PHARMACOLOGY,DEFINITELY NOT,"RESOLVED, NO SEQUELAE",,,,,,,Y,2001,2001,3,3,
NIDA-CTN-0001,AE,01_000579,2001,2,ACTIVE,STUDY DAY 2,2,180,TEARFUL,TEARFULNESS,PSYCHIATRIC DISORDERS,SEVERE,N,NONE,THERAPY PHARMACOLOGY (OTC OR RX) THERAPY NON-PHARMACOLOGY,REMOTELY,"RESOLVED, NO SEQUELAE",,,,,,,Y,2001,2001,2,2,
NIDA-CTN-0001,AE,01_000579,2001,2,ACTIVE,STUDY DAY 2,2,181,TONGUE TREMOR,TREMOR,NERVOUS SYSTEM DISORDERS,MODERATE,N,NONE,THERAPY PHARMACOLOGY (OTC OR RX) THERAPY NON-PHARMACOLOGY,REMOTELY,"RESOLVED, NO SEQUELAE",,,,,,,Y,2001,2001,2,2,
NIDA-CTN-0001,AE,01_000579,2001,1,ACTIVE,STUDY DAY 1,1,182,TREMOR,TREMOR,NERVOUS SYSTEM DISORDERS,MODERATE,N,NONE,THERAPY PHARMACOLOGY (OTC OR RX) THERAPY NON-PHARMACOLOGY,REMOTELY,"RESOLVED, NO SEQUELAE",,,,,,,Y,2002,2003,366,732,
NIDA-CTN-0001,AE,01_001362,2001,56,FOLLOW-UP 1,FOLLOW-UP 1,15,2119,ABSCESS,ABSCESS,INFECTIONS AND INFESTATIONS,MODERATE,N,NONE,THERAPY PHARMACOLOGY (OTC OR RX) THERAPY NON-PHARMACOLOGY,DEFINITELY NOT,"RESOLVED, NO SEQUELAE",,,,,,,Y,2001,2001,21,38,
NIDA-CTN-0001,AE,01_001362,2001,56,FOLLOW-UP 1,FOLLOW-UP 1,15,2120,DEPRESSION,DEPRESSION,PSYCHIATRIC DISORDERS,MILD,N,NONE,NONE,DEFINITELY NOT,UNKNOWN,,,,,,,,2001,,42," ",
NIDA-CTN-0001,AE,01_001362,2001,2,ACTIVE,STUDY DAY 2,2,2121,DRY HEAVES,RETCHING,GASTROINTESTINAL DISORDERS,SEVERE,N,NONE,THERAPY PHARMACOLOGY (OTC OR RX),POSSIBLY,"RESOLVED, NO SEQUELAE",,,,,,,Y,2001,2001,2,3,
NIDA-CTN-0001,AE,01_001362,2001,3,ACTIVE,STUDY DAY 3,3,2122,HEADACHE,HEADACHE,NERVOUS SYSTEM DISORDERS,MILD,N,NONE,NONE,DEFINITELY,"RESOLVED, NO SEQUELAE",,,,,,,,2001,2001,2,3,
NIDA-CTN-0001,AE,01_001362,2001,1,ACTIVE,STUDY DAY 1,1,2123,LEG CRAMPS,MUSCLE CRAMP,MUSCULOSKELETAL AND CONNECTIVE TISSUE DISORDERS,MODERATE,N,NONE,THERAPY PHARMACOLOGY (OTC OR RX),DEFINITELY NOT,UNKNOWN,,,,,,,Y,2001,,1," ",
NIDA-CTN-0001,AE,01_001362,2001,3,ACTIVE,STUDY DAY 3,3,2124,NAUSEA,NAUSEA,GASTROINTESTINAL DISORDERS,,N,NONE,THERAPY PHARMACOLOGY (OTC OR RX),DEFINITELY NOT,UNKNOWN,,,,,,,Y,2001,,2," ",
NIDA-CTN-0001,AE,01_001362,2001,56,FOLLOW-UP 1,FOLLOW-UP 1,15,2125,PAINFUL HIP JOINT,ARTHRALGIA,MUSCULOSKELETAL AND CONNECTIVE TISSUE DISORDERS,MODERATE,N,NONE,NONE,DEFINITELY NOT,UNKNOWN,,,,,,,,2001,,26," ",
NIDA-CTN-0001,AE,01_001362,2001,3,ACTIVE,STUDY DAY 3,3,2126,RESTLESSNESS,RESTLESSNESS,PSYCHIATRIC DISORDERS,MILD,N,NONE,NONE,DEFINITELY NOT,"RESOLVED, NO SEQUELAE",,,,,,,Y,2001,2001,2,3,
NIDA-CTN-0001,AE,01_001490,2001,1,ACTIVE,STUDY DAY 1,1,745,GOOSEFLESH,PILOERECTION,SKIN AND SUBCUTANEOUS TISSUE DISORDERS,MILD,N,NONE,NONE,POSSIBLY,"RESOLVED, NO SEQUELAE",,,,,,,,2001,2001,1,2,
NIDA-CTN-0001,AE,01_001490,2001,2,ACTIVE,STUDY DAY 2,2,746,INSOMNIA,INSOMNIA,PSYCHIATRIC DISORDERS,MILD,N,NONE,THERAPY PHARMACOLOGY (OTC OR RX),POSSIBLY,"RESOLVED, NO SEQUELAE",,,,,,,Y,2001,2001,1,2,
NIDA-CTN-0001,AE,01_001490,2001,3,ACTIVE,STUDY DAY 3,3,747,INSOMNIA,INSOMNIA,PSYCHIATRIC DISORDERS,MILD,N,NONE,THERAPY PHARMACOLOGY (OTC OR RX),POSSIBLY,"RESOLVED, NO SEQUELAE",,,,,,,Y,2001,2001,2,3,
NIDA-CTN-0001,AE,01_001490,2001,4,ACTIVE,STUDY DAY 4,4,748,INSOMNIA,INSOMNIA,PSYCHIATRIC DISORDERS,MILD,N,NONE,THERAPY PHARMACOLOGY (OTC OR RX),POSSIBLY,"RESOLVED, NO SEQUELAE",,,,,,,Y,2001,2001,3,7,
NIDA-CTN-0001,AE,01_001490,2001,4,ACTIVE,STUDY DAY 4,4,749,JOINTPAIN,ARTHRALGIA,MUSCULOSKELETAL AND CONNECTIVE TISSUE DISORDERS,MILD,N,NONE,THERAPY PHARMACOLOGY (OTC OR RX),POSSIBLY,"RESOLVED, NO SEQUELAE",,,,,,,Y,2001,2001,3,4,
NIDA-CTN-0001,AE,01_001490,2001,5,ACTIVE,STUDY DAY 5,5,750,JOINTPAIN,ARTHRALGIA,MUSCULOSKELETAL AND CONNECTIVE TISSUE DISORDERS,MILD,N,NONE,THERAPY PHARMACOLOGY (OTC OR RX),POSSIBLY,"RESOLVED, NO SEQUELAE",,,,,,,Y,2001,2001,4,7,
NIDA-CTN-0001,AE,01_001490,2001,1,ACTIVE,STUDY DAY 1,1,751,NAUSEA,NAUSEA,GASTROINTESTINAL DISORDERS,MODERATE,N,NONE,NONE,POSSIBLY,"RESOLVED, NO SEQUELAE",,,,,,,,2001,2001,1,2,
NIDA-CTN-0001,AE,01_001490,2001,1,ACTIVE,STUDY DAY 1,1,752,RUNNING NOSE,RHINORRHOEA,"RESPIRATORY, THORACIC AND MEDIASTINAL DISORDERS",MILD,N,NONE,NONE,POSSIBLY,"RESOLVED, NO SEQUELAE",,,,,,,,2001,2001,1,2,
NIDA-CTN-0001,AE,01_002199,2001,1,ACTIVE,STUDY DAY 1,1,457,ACHES,PAIN NOS,GENERAL DISORDERS AND ADMINISTRATION SITE CONDITIONS,MODERATE,N,NONE,THERAPY PHARMACOLOGY (OTC OR RX) THERAPY NON-PHARMACOLOGY,REMOTELY,"RESOLVED, NO SEQUELAE",,,,,,,Y,2001,2001,1,4,
NIDA-CTN-0001,AE,01_002199,2001,13,ACTIVE,STUDY DAY 13,13,458,ACHES MUSCLE,MYALGIA,MUSCULOSKELETAL AND CONNECTIVE TISSUE DISORDERS,MODERATE,N,NONE,THERAPY NON-PHARMACOLOGY,POSSIBLY,"RESOLVED, NO SEQUELAE",,,,,,,Y,2001,2001,13,14,
NIDA-CTN-0001,AE,01_002199,2001,5,ACTIVE,STUDY DAY 5,5,459,ALLERGIES,HYPERSENSITIVITY NOS,IMMUNE SYSTEM DISORDERS,MODERATE,N,NONE,THERAPY PHARMACOLOGY (OTC OR RX) THERAPY NON-PHARMACOLOGY,DEFINITELY NOT,"RESOLVED, NO SEQUELAE",,,,,,,Y,2001,2001,5,8,
NIDA-CTN-0001,AE,01_002199,2001,11,ACTIVE,STUDY DAY 11,11,460,ALLERGY,HYPERSENSITIVITY NOS,IMMUNE SYSTEM DISORDERS,MODERATE,N,NONE,THERAPY PHARMACOLOGY (OTC OR RX) THERAPY NON-PHARMACOLOGY,DEFINITELY NOT,"NOT YET RESOLVED, BUT IMPROVING",,,,,,,Y,2001,2001,11,12,
NIDA-CTN-0001,AE,01_002199,2001,13,ACTIVE,STUDY DAY 13,13,461,ALLERGY SX,HYPERSENSITIVITY,IMMUNE SYSTEM DISORDERS,MODERATE,N,NONE,THERAPY PHARMACOLOGY (OTC OR RX) THERAPY NON-PHARMACOLOGY,DEFINITELY NOT,"RESOLVED, NO SEQUELAE",,,,,,,Y,2001,2001,13,14,
NIDA-CTN-0001,AE,01_002199,2001,1,ACTIVE,STUDY DAY 1,1,462,ANXIETY,ANXIETY NEC,PSYCHIATRIC DISORDERS,MODERATE,N,NONE,THERAPY PHARMACOLOGY (OTC OR RX) THERAPY NON-PHARMACOLOGY,REMOTELY,"RESOLVED, NO SEQUELAE",,,,,,,Y,2001,2001,1,2,
NIDA-CTN-0001,AE,01_002199,2001,4,ACTIVE,STUDY DAY 4,4,463,ANXIETY,ANXIETY NEC,PSYCHIATRIC DISORDERS,MILD,N,NONE,THERAPY NON-PHARMACOLOGY,REMOTELY,"RESOLVED, NO SEQUELAE",,,,,,,Y,2001,2001,4,7,
NIDA-CTN-0001,AE,01_002199,2001,4,ACTIVE,STUDY DAY 4,4,464,BACK ACHE,BACK PAIN,MUSCULOSKELETAL AND CONNECTIVE TISSUE DISORDERS,MILD,N,NONE,THERAPY PHARMACOLOGY (OTC OR RX) THERAPY NON-PHARMACOLOGY,REMOTELY,"RESOLVED, NO SEQUELAE",,,,,,,Y,2001,2001,4,5,
NIDA-CTN-0001,AE,01_002199,2001,12,ACTIVE,STUDY DAY 12,12,465,BACK PAIN,BACK PAIN,MUSCULOSKELETAL AND CONNECTIVE TISSUE DISORDERS,MODERATE,N,NONE,THERAPY PHARMACOLOGY (OTC OR RX) THERAPY NON-PHARMACOLOGY,REMOTELY,"RESOLVED, NO SEQUELAE",,,,,,,Y,2001,2001,12,13,
NIDA-CTN-0001,AE,01_002199,2002,27,FOLLOW-UP 1,FOLLOW-UP 1,15,466,CHEST CONGESTION,PULMONARY CONGESTION,"RESPIRATORY, THORACIC AND MEDIASTINAL DISORDERS",MODERATE,,NONE,THERAPY PHARMACOLOGY (OTC OR RX) THERAPY NON-PHARMACOLOGY,DEFINITELY NOT,,,,,,,,Y,2002,,16," ",
NIDA-CTN-0001,AE,01_002199,2001,5,ACTIVE,STUDY DAY 5,5,467,COLD SYMPTOMS,NASOPHARYNGITIS,INFECTIONS AND INFESTATIONS,MODERATE,N,NONE,THERAPY PHARMACOLOGY (OTC OR RX) THERAPY NON-PHARMACOLOGY,DEFINITELY NOT,"RESOLVED, NO SEQUELAE",,,,,,,Y,2001,2001,5,6,
NIDA-CTN-0001,AE,01_002199,2001,10,ACTIVE,STUDY DAY 10,10,468,COLD SYMPTOMS,NASOPHARYNGITIS,INFECTIONS AND INFESTATIONS,MODERATE,N,NONE,THERAPY PHARMACOLOGY (OTC OR RX) THERAPY NON-PHARMACOLOGY,DEFINITELY NOT,"RESOLVED, NO SEQUELAE",,,,,,,Y,2001,2001,10,11,
NIDA-CTN-0001,AE,01_002199,2002,27,FOLLOW-UP 1,FOLLOW-UP 1,15,469,COLD SYMPTOMS,NASOPHARYNGITIS,INFECTIONS AND INFESTATIONS,MILD,N,NONE,THERAPY NON-PHARMACOLOGY,DEFINITELY NOT,UNKNOWN,,,,,,,Y,2002,,16," ",
NIDA-CTN-0001,AE,01_002199,2001,12,ACTIVE,STUDY DAY 12,12,470,CONGESTION,NASAL CONGESTION,"RESPIRATORY, THORACIC AND MEDIASTINAL DISORDERS",MODERATE,N,NONE,THERAPY PHARMACOLOGY (OTC OR RX) THERAPY NON-PHARMACOLOGY,DEFINITELY NOT,"RESOLVED, NO SEQUELAE",,,,,,,Y,2001,2001,12,13,
NIDA-CTN-0001,AE,01_002199,2001,6,ACTIVE,STUDY DAY 6,6,471,DIAPHORESIS,SWEATING INCREASED,SKIN AND SUBCUTANEOUS TISSUE DISORDERS,MODERATE,N,NONE,THERAPY PHARMACOLOGY (OTC OR RX) THERAPY NON-PHARMACOLOGY,REMOTELY,"RESOLVED, NO SEQUELAE",,,,,,,Y,2001,2001,6,7,
NIDA-CTN-0001,AE,01_002199,2001,1,ACTIVE,STUDY DAY 1,1,472,DIARRHEA,DIARRHOEA NOS,GASTROINTESTINAL DISORDERS,MODERATE,N,NONE,THERAPY PHARMACOLOGY (OTC OR RX) THERAPY NON-PHARMACOLOGY,REMOTELY,"RESOLVED, NO SEQUELAE",,,,,,,Y,2001,2001,1,2,
NIDA-CTN-0001,AE,01_002199,2002,27,FOLLOW-UP 1,FOLLOW-UP 1,15,473,HEADACHE,HEADACHE NOS,NERVOUS SYSTEM DISORDERS,MILD,N,NONE,THERAPY NON-PHARMACOLOGY,DEFINITELY NOT,UNKNOWN,,,,,,,Y,2002,,19," ",
NIDA-CTN-0001,AE,01_002199,2001,3,ACTIVE,STUDY DAY 3,3,474,INSOMNIA,INSOMNIA,PSYCHIATRIC DISORDERS,MODERATE,N,NONE,THERAPY PHARMACOLOGY (OTC OR RX) THERAPY NON-PHARMACOLOGY,REMOTELY,"RESOLVED, NO SEQUELAE",,,,,,,Y,2001,2001,3,4,
NIDA-CTN-0001,AE,01_002199,2001,4,ACTIVE,STUDY DAY 4,4,475,JUMPY,NERVOUSNESS,PSYCHIATRIC DISORDERS,MODERATE,N,NONE,THERAPY PHARMACOLOGY (OTC OR RX) THERAPY NON-PHARMACOLOGY,REMOTELY,"RESOLVED, NO SEQUELAE",,,,,,,Y,2001,2001,4,5,
NIDA-CTN-0001,AE,01_002199,2001,10,ACTIVE,STUDY DAY 10,10,476,NASAL CONGESTION,NASAL CONGESTION,"RESPIRATORY, THORACIC AND MEDIASTINAL DISORDERS",MODERATE,N,NONE,THERAPY PHARMACOLOGY (OTC OR RX) THERAPY NON-PHARMACOLOGY,DEFINITELY NOT,"RESOLVED, NO SEQUELAE",,,,,,,Y,2001,2001,10,11,
NIDA-CTN-0001,AE,01_002199,2001,1,ACTIVE,STUDY DAY 1,1,477,NAUSEA,NAUSEA,GASTROINTESTINAL DISORDERS,MODERATE,N,NONE,THERAPY PHARMACOLOGY (OTC OR RX) THERAPY NON-PHARMACOLOGY,REMOTELY,"RESOLVED, NO SEQUELAE",,,,,,,Y,2001,2001,1,4,
NIDA-CTN-0001,AE,01_002199,2002,27,FOLLOW-UP 1,FOLLOW-UP 1,15,478,PRODUCTIVE COUGH,PRODUCTIVE COUGH,"RESPIRATORY, THORACIC AND MEDIASTINAL DISORDERS",MILD,N,NONE,THERAPY NON-PHARMACOLOGY,DEFINITELY NOT,UNKNOWN,,,,,,,Y,2002,,18," ",
NIDA-CTN-0001,AE,01_002199,2001,5,ACTIVE,STUDY DAY 5,5,479,RESTLESS,RESTLESSNESS,PSYCHIATRIC DISORDERS,MODERATE,N,NONE,THERAPY PHARMACOLOGY (OTC OR RX) THERAPY NON-PHARMACOLOGY,REMOTELY,"RESOLVED, NO SEQUELAE",,,,,,,Y,2001,2001,5,6,
NIDA-CTN-0001,AE,01_002199,2002,27,FOLLOW-UP 1,FOLLOW-UP 1,15,480,SINUS CONGESTION,SINUS CONGESTION,"RESPIRATORY, THORACIC AND MEDIASTINAL DISORDERS",MODERATE,,NONE,THERAPY PHARMACOLOGY (OTC OR RX) THERAPY NON-PHARMACOLOGY,DEFINITELY NOT,,,,,,,,Y,2002,,16," ",
NIDA-CTN-0001,AE,01_002199,2001,4,ACTIVE,STUDY DAY 4,4,481,SINUS INFECTION,SINUSITIS NOS,INFECTIONS AND INFESTATIONS,MODERATE,N,NONE,THERAPY PHARMACOLOGY (OTC OR RX) THERAPY NON-PHARMACOLOGY,DEFINITELY NOT,"RESOLVED, NO SEQUELAE",,,,,,,Y,2001,2001,4,9,
NIDA-CTN-0001,AE,01_002199,2002,27,FOLLOW-UP 1,FOLLOW-UP 1,15,482,SUBJECTIVE OPIATE WD SX,DRUG WITHDRAWAL SYNDROME,GENERAL DISORDERS AND ADMINISTRATION SITE CONDITIONS,MILD,N,NONE,THERAPY PHARMACOLOGY (OTC OR RX) THERAPY NON-PHARMACOLOGY,POSSIBLY,"NOT YET RESOLVED, BUT IMPROVING",,,,,,,Y,2001,,15," ",
NIDA-CTN-0001,AE,01_002844,2001,2,ACTIVE,STUDY DAY 2,2,1632,CHILLS,RIGORS,GENERAL DISORDERS AND ADMINISTRATION SITE CONDITIONS,MILD,N,NONE,NONE,DEFINITELY NOT,"RESOLVED, NO SEQUELAE",,,,,,,,2001,2001,1,2,
NIDA-CTN-0001,AE,01_002844,2001,12,ACTIVE,STUDY DAY 12,12,1633,CONSTIPATION,CONSTIPATION,GASTROINTESTINAL DISORDERS,MILD,N,NONE,NONE,DEFINITELY,"NOT YET RESOLVED, NO CHANGE",,,,,,,,2001,,11," ",
NIDA-CTN-0001,AE,01_002844,2001,13,ACTIVE,STUDY DAY 13,13,1634,CONSTIPATION,CONSTIPATION,GASTROINTESTINAL DISORDERS,MODERATE,N,NONE,THERAPY PHARMACOLOGY (OTC OR RX),DEFINITELY,"RESOLVED, NO SEQUELAE",,,,,,,Y,2001,2001,11,12,
NIDA-CTN-0001,AE,01_002844,2001,4,ACTIVE,STUDY DAY 4,4,1635,DROWSINESS,SOMNOLENCE,NERVOUS SYSTEM DISORDERS,MODERATE,N,NONE,NONE,POSSIBLY,"NOT YET RESOLVED, NO CHANGE",,,,,,,,2001,,4," ",
NIDA-CTN-0001,AE,01_002844,2001,5,ACTIVE,STUDY DAY 5,5,1636,DROWSINESS,SOMNOLENCE,NERVOUS SYSTEM DISORDERS,MODERATE,N,NONE,NONE,POSSIBLY,"NOT YET RESOLVED, NO CHANGE",,,,,,,,2001,,4," ",
NIDA-CTN-0001,AE,01_002844,2001,6,ACTIVE,STUDY DAY 6,6,1637,DROWSINESS,SOMNOLENCE,NERVOUS SYSTEM DISORDERS,MODERATE,N,NONE,NONE,POSSIBLY,"RESOLVED, NO SEQUELAE",,,,,,,,2001,2001,4,6,
NIDA-CTN-0001,AE,01_002844,2001,7,ACTIVE,STUDY DAY 7,7,1638,DROWSINESS,SOMNOLENCE,NERVOUS SYSTEM DISORDERS,MILD,N,NONE,NONE,POSSIBLY,"RESOLVED, NO SEQUELAE",,,,,,,,2001,2001,6,6,
NIDA-CTN-0001,AE,01_002844,2001,8,ACTIVE,STUDY DAY 8,8,1639,DROWSINESS,SOMNOLENCE,NERVOUS SYSTEM DISORDERS,MILD,N,NONE,NONE,POSSIBLY,"NOT YET RESOLVED, NO CHANGE",,,,,,,,2001,,7," ",
NIDA-CTN-0001,AE,01_002844,2001,9,ACTIVE,STUDY DAY 9,9,1640,DROWSINESS,SOMNOLENCE,NERVOUS SYSTEM DISORDERS,MILD,N,NONE,NONE,POSSIBLY,"NOT YET RESOLVED, NO CHANGE",,,,,,,,2001,,7," ",
NIDA-CTN-0001,AE,01_002844,2001,10,ACTIVE,STUDY DAY 10,10,1641,DROWSINESS,SOMNOLENCE,NERVOUS SYSTEM DISORDERS,MILD,N,NONE,NONE,POSSIBLY,"NOT YET RESOLVED, WORSENING",,,,,,,,2001,,7," ",
NIDA-CTN-0001,AE,01_002844,2001,11,ACTIVE,STUDY DAY 11,11,1642,DROWSINESS,SOMNOLENCE,NERVOUS SYSTEM DISORDERS,MILD,N,NONE,NONE,POSSIBLY,"NOT YET RESOLVED, NO CHANGE",,,,,,,,2001,,7," ",
NIDA-CTN-0001,AE,01_002844,2001,12,ACTIVE,STUDY DAY 12,12,1643,DROWSINESS,SOMNOLENCE,NERVOUS SYSTEM DISORDERS,MILD,N,NONE,NONE,POSSIBLY,"NOT YET RESOLVED, NO CHANGE",,,,,,,,2001,,7," ",
NIDA-CTN-0001,AE,01_002844,2001,13,ACTIVE,STUDY DAY 13,13,1644,DROWSINESS,SOMNOLENCE,NERVOUS SYSTEM DISORDERS,MILD,N,NONE,NONE,POSSIBLY,"NOT YET RESOLVED, NO CHANGE",,,,,,,,2001,,7," ",
NIDA-CTN-0001,AE,01_002844,2001,14,ACTIVE,STUDY DAY 14,14,1645,DROWSINESS,SOMNOLENCE,NERVOUS SYSTEM DISORDERS,MILD,N,NONE,NONE,POSSIBLY,"NOT YET RESOLVED, NO CHANGE",,,,,,,,2001,,7," ",
NIDA-CTN-0001,AE,01_003330,2001,9,ACTIVE,STUDY DAY 9,9,884,ABDOMINAL CRAMPS,ABDOMINAL PAIN NOS,GASTROINTESTINAL DISORDERS,MILD,N,NONE,NONE,DEFINITELY NOT,"RESOLVED, NO SEQUELAE",,,,,,,,2001,2001,7,7,
NIDA-CTN-0001,AE,01_003330,2001,2,ACTIVE,STUDY DAY 2,2,885,ANXIETY,ANXIETY NEC,PSYCHIATRIC DISORDERS,MODERATE,N,NONE,THERAPY PHARMACOLOGY (OTC OR RX),DEFINITELY NOT,"RESOLVED, NO SEQUELAE",,,,,,,Y,2001,2001,1,1,
NIDA-CTN-0001,AE,01_003330,2001,6,ACTIVE,STUDY DAY 6,6,886,ANXIETY,ANXIETY,PSYCHIATRIC DISORDERS,MODERATE,N,NONE,THERAPY PHARMACOLOGY (OTC OR RX),DEFINITELY NOT,"RESOLVED, NO SEQUELAE",,,,,,,Y,2001,2001,6,9,
NIDA-CTN-0001,AE,01_003330,2001,2,ACTIVE,STUDY DAY 2,2,887,BACK PAIN,BACK PAIN,MUSCULOSKELETAL AND CONNECTIVE TISSUE DISORDERS,SEVERE,N,NONE,THERAPY PHARMACOLOGY (OTC OR RX),DEFINITELY NOT,"NOT YET RESOLVED, NO CHANGE",,,,,,,Y,2001,,1," ",
NIDA-CTN-0001,AE,01_003330,2001,6,ACTIVE,STUDY DAY 6,6,888,DIAPHORETIC,SWEATING INCREASED,SKIN AND SUBCUTANEOUS TISSUE DISORDERS,MODERATE,N,NONE,NONE,UNKNOWN,"RESOLVED, NO SEQUELAE",,,,,,,Y,2001,2001,6,6,
NIDA-CTN-0001,AE,01_003330,2001,6,ACTIVE,STUDY DAY 6,6,889,INCREASED HEART RATE,HEART RATE INCREASED,INVESTIGATIONS,MILD,N,NONE,NONE,UNKNOWN,"RESOLVED, NO SEQUELAE",,,,,,,Y,2001,2001,6,7,
NIDA-CTN-0001,AE,01_003330,2001,2,ACTIVE,STUDY DAY 2,2,890,INSOMNIA,INSOMNIA,PSYCHIATRIC DISORDERS,MILD,N,NONE,NONE,DEFINITELY NOT,"RESOLVED, NO SEQUELAE",,,,,,,Y,2001,2001,1,9,
NIDA-CTN-0001,AE,01_003330,2001,3,ACTIVE,STUDY DAY 3,3,891,NECK PAIN,NECK PAIN,MUSCULOSKELETAL AND CONNECTIVE TISSUE DISORDERS,SEVERE,N,NONE,NONE,DEFINITELY NOT,"RESOLVED, NO SEQUELAE",,,,,,,,2001,2001,2,2,
NIDA-CTN-0001,AE,01_003330,2001,4,ACTIVE,STUDY DAY 4,4,892,STOMACH ACHE,ABDOMINAL PAIN UPPER,GASTROINTESTINAL DISORDERS,MILD,N,NONE,THERAPY PHARMACOLOGY (OTC OR RX),DEFINITELY NOT,"RESOLVED, NO SEQUELAE",,,,,,,Y,2001,2001,4,4,
NIDA-CTN-0001,AE,01_003653,2002,2,ACTIVE,STUDY DAY 2,2,841,ANXIETY,ANXIETY NEC,PSYCHIATRIC DISORDERS,MILD,N,NONE,THERAPY PHARMACOLOGY (OTC OR RX),POSSIBLY,"RESOLVED, NO SEQUELAE",,,,,,,Y,2002,2002,1,10,
NIDA-CTN-0001,AE,01_003653,2002,2,ACTIVE,STUDY DAY 2,2,842,BODY PAIN,PAIN NOS,GENERAL DISORDERS AND ADMINISTRATION SITE CONDITIONS,MILD,N,NONE,NONE,POSSIBLY,"RESOLVED, NO SEQUELAE",,,,,,,,2002,2002,1,2,
NIDA-CTN-0001,AE,01_003653,2002,2,ACTIVE,STUDY DAY 2,2,843,BONEPAIN,BONE PAIN,MUSCULOSKELETAL AND CONNECTIVE TISSUE DISORDERS,MILD,N,NONE,THERAPY PHARMACOLOGY (OTC OR RX),POSSIBLY,"RESOLVED, NO SEQUELAE",,,,,,,Y,2002,2002,1,10,
NIDA-CTN-0001,AE,01_003653,2002,2,ACTIVE,STUDY DAY 2,2,844,CHILLS,RIGORS,GENERAL DISORDERS AND ADMINISTRATION SITE CONDITIONS,MILD,N,NONE,NONE,POSSIBLY,"RESOLVED, NO SEQUELAE",,,,,,,,2002,2002,1,2,
NIDA-CTN-0001,AE,01_003653,2002,2,ACTIVE,STUDY DAY 2,2,845,FEELING COLD,FEELING COLD,GENERAL DISORDERS AND ADMINISTRATION SITE CONDITIONS,MILD,N,NONE,NONE,POSSIBLY,"RESOLVED, NO SEQUELAE",,,,,,,,2002,2002,1,2,
NIDA-CTN-0001,AE,01_003653,2002,1,ACTIVE,STUDY DAY 1,1,846,GOOSE FLESH,PILOERECTION,SKIN AND SUBCUTANEOUS TISSUE DISORDERS,MODERATE,N,NONE,NONE,REMOTELY,"RESOLVED, NO SEQUELAE",,,,,,,,2002,2002,1,2,
NIDA-CTN-0001,AE,01_003653,2002,2,ACTIVE,STUDY DAY 2,2,847,HEADACHE,HEADACHE NOS,NERVOUS SYSTEM DISORDERS,MILD,N,NONE,THERAPY PHARMACOLOGY (OTC OR RX),POSSIBLY,"RESOLVED, NO SEQUELAE",,,,,,,Y,2002,2002,1,10,
NIDA-CTN-0001,AE,01_003653,2002,2,ACTIVE,STUDY DAY 2,2,848,INSOMNIA,INSOMNIA,PSYCHIATRIC DISORDERS,MILD,N,NONE,THERAPY PHARMACOLOGY (OTC OR RX),POSSIBLY,"RESOLVED, NO SEQUELAE",,,,,,,Y,2002,2002,1,10,
NIDA-CTN-0001,AE,01_003653,2002,2,ACTIVE,STUDY DAY 2,2,849,LOOSESTOOL,LOOSE STOOLS,GASTROINTESTINAL DISORDERS,MILD,N,NONE,THERAPY PHARMACOLOGY (OTC OR RX),POSSIBLY,"RESOLVED, NO SEQUELAE",,,,,,,Y,2002,2002,1,4,
NIDA-CTN-0001,AE,01_003653,2002,1,ACTIVE,STUDY DAY 1,1,850,NAUSEA,NAUSEA,GASTROINTESTINAL DISORDERS,MODERATE,N,NONE,NONE,REMOTELY,"RESOLVED, NO SEQUELAE",,,,,,,,2002,2002,1,2,
NIDA-CTN-0001,AE,01_003653,2002,4,ACTIVE,STUDY DAY 4,4,851,NAUSEA,NAUSEA,GASTROINTESTINAL DISORDERS,MILD,N,NONE,THERAPY PHARMACOLOGY (OTC OR RX),POSSIBLY,"RESOLVED, NO SEQUELAE",,,,,,,Y,2002,2002,3,5,
NIDA-CTN-0001,AE,01_003653,2002,1,ACTIVE,STUDY DAY 1,1,852,RUNNYNOSE,RHINORRHOEA,"RESPIRATORY, THORACIC AND MEDIASTINAL DISORDERS",MODERATE,N,NONE,NONE,REMOTELY,"RESOLVED, NO SEQUELAE",,,,,,,,2002,2002,1,2,
NIDA-CTN-0001,AE,01_003653,2002,9,ACTIVE,STUDY DAY 9,9,853,SWOLLEN ANKLES,JOINT SWELLING,MUSCULOSKELETAL AND CONNECTIVE TISSUE DISORDERS,MILD,N,NONE,NONE,POSSIBLY,"RESOLVED, NO SEQUELAE",,,,,,,,2002,2002,8,10,
NIDA-CTN-0001,AE,01_006180,2001,2,ACTIVE,STUDY DAY 2,2,861,ABDOMINAL CRAMPS,ABDOMINAL PAIN,GASTROINTESTINAL DISORDERS,MODERATE,N,NONE,NONE,DEFINITELY NOT,"RESOLVED, NO SEQUELAE",,,,,,,,2001,2001,2,2,
NIDA-CTN-0001,AE,01_006180,2001,4,ACTIVE,STUDY DAY 4,4,862,ABDOMINAL CRAMPS,ABDOMINAL PAIN,GASTROINTESTINAL DISORDERS,MILD,N,NONE,NONE,DEFINITELY NOT,"RESOLVED, NO SEQUELAE",,,,,,,,2001,2001,3,3,
NIDA-CTN-0001,AE,01_006180,2001,5,ACTIVE,STUDY DAY 5,5,863,ABDOMINAL CRAMPS,ABDOMINAL PAIN,GASTROINTESTINAL DISORDERS,MILD,N,DISCONTINUED PERMANENTLY,NONE,DEFINITELY NOT,UNKNOWN,,,,,,,Y,2001,,4," ",
NIDA-CTN-0001,AE,01_006180,2001,3,ACTIVE,STUDY DAY 3,3,864,AGITATION,AGITATION,PSYCHIATRIC DISORDERS,MILD,N,NONE,NONE,DEFINITELY NOT,UNKNOWN,,,,,,,,2001,,3," ",
NIDA-CTN-0001,AE,01_006180,2001,1,ACTIVE,STUDY DAY 1,1,865,ANXIETY,ANXIETY,PSYCHIATRIC DISORDERS,MODERATE,N,NONE,THERAPY PHARMACOLOGY (OTC OR RX),UNKNOWN,"RESOLVED, NO SEQUELAE",,,,,,,Y,2001,2001,1,8,
NIDA-CTN-0001,AE,01_006180,2001,51,FOLLOW-UP 1,FOLLOW-UP 1,15,866,BACK AND NECK PAIN,NOT CODED,NOT CODED,SEVERE,N,NONE,THERAPY PHARMACOLOGY (OTC OR RX),DEFINITELY NOT,"RESOLVED, NO SEQUELAE",,,,,,,Y,2001,2001,19,26,
NIDA-CTN-0001,AE,01_006180,2001,2,ACTIVE,STUDY DAY 2,2,867,BACK PAIN,BACK PAIN,MUSCULOSKELETAL AND CONNECTIVE TISSUE DISORDERS,MODERATE,N,NONE,THERAPY PHARMACOLOGY (OTC OR RX),DEFINITELY NOT,"RESOLVED, NO SEQUELAE",,,,,,,Y,2001,2001,2,4,
NIDA-CTN-0001,AE,01_006180,2001,7,ACTIVE,STUDY DAY 7,7,868,BACK PAIN,BACK PAIN,MUSCULOSKELETAL AND CONNECTIVE TISSUE DISORDERS,MILD,N,NONE,THERAPY PHARMACOLOGY (OTC OR RX),DEFINITELY NOT,"RESOLVED, NO SEQUELAE",,,,,,,Y,2001,2001,7,7,
NIDA-CTN-0001,AE,01_006180,2001,51,FOLLOW-UP 1,FOLLOW-UP 1,15,869,BACK PAIN,BACK PAIN,MUSCULOSKELETAL AND CONNECTIVE TISSUE DISORDERS,SEVERE,N,NONE,THERAPY PHARMACOLOGY (OTC OR RX),DEFINITELY NOT,"RESOLVED, NO SEQUELAE",,,,,,,Y,2001,2001,19,26,
NIDA-CTN-0001,AE,01_006180,2001,6,ACTIVE,STUDY DAY 6,6,870,BODY PAIN,PAIN NOS,GENERAL DISORDERS AND ADMINISTRATION SITE CONDITIONS,MILD,N,NONE,NONE,DEFINITELY NOT,UNKNOWN,,,,,,,,2001,,5," ",
NIDA-CTN-0001,AE,01_006180,2001,3,ACTIVE,STUDY DAY 3,3,871,DIARRHEA,DIARRHOEA,GASTROINTESTINAL DISORDERS,MILD,N,NONE,NONE,UNKNOWN,"RESOLVED, NO SEQUELAE",,,,,,,,2001,2001,3,3,
NIDA-CTN-0001,AE,01_006180,2001,2,ACTIVE,STUDY DAY 2,2,872,DIZZINESS,DIZZINESS,NERVOUS SYSTEM DISORDERS,MILD,N,NONE,NONE,POSSIBLY,UNKNOWN,,,,,,,,2001,,2," ",
NIDA-CTN-0001,AE,01_006180,2001,3,ACTIVE,STUDY DAY 3,3,873,DRY HEAVES,RETCHING,GASTROINTESTINAL DISORDERS,MILD,N,NONE,NONE,POSSIBLY,UNKNOWN,,,,,,,,2001,,3," ",
NIDA-CTN-0001,AE,01_006180,2001,4,ACTIVE,STUDY DAY 4,4,874,DRY HEAVES,RETCHING,GASTROINTESTINAL DISORDERS,MODERATE,N,NONE,THERAPY PHARMACOLOGY (OTC OR RX),DEFINITELY NOT,"RESOLVED, NO SEQUELAE",,,,,,,Y,2001,2001,3,4,
NIDA-CTN-0001,AE,01_006180,2001,1,ACTIVE,STUDY DAY 1,1,875,INSOMNIA,INSOMNIA,PSYCHIATRIC DISORDERS,SEVERE,N,NONE,THERAPY PHARMACOLOGY (OTC OR RX),DEFINITELY NOT,"RESOLVED, NO SEQUELAE",,,,,,,Y,2001,2001,1,10,
NIDA-CTN-0001,AE,01_006180,2001,4,ACTIVE,STUDY DAY 4,4,876,NAUSEA,NAUSEA,GASTROINTESTINAL DISORDERS,MODERATE,N,NONE,THERAPY PHARMACOLOGY (OTC OR RX),DEFINITELY NOT,"RESOLVED, NO SEQUELAE",,,,,,,Y,2001,2001,3,4,
NIDA-CTN-0001,AE,01_006180,2001,5,ACTIVE,STUDY DAY 5,5,877,NAUSEA,NAUSEA,GASTROINTESTINAL DISORDERS,MILD,N,NONE,THERAPY PHARMACOLOGY (OTC OR RX),UNKNOWN,"RESOLVED, NO SEQUELAE",,,,,,,Y,2001,2001,4,4,
NIDA-CTN-0001,AE,01_006180,2001,6,ACTIVE,STUDY DAY 6,6,878,NAUSEA,NAUSEA,GASTROINTESTINAL DISORDERS,MILD,N,NONE,NONE,POSSIBLY,UNKNOWN,,,,,,,,2001,,5," ",
NIDA-CTN-0001,AE,01_006180,2001,1,ACTIVE,STUDY DAY 1,1,879,RESTLESSNESS,RESTLESSNESS,PSYCHIATRIC DISORDERS,MODERATE,N,NONE,NONE,DEFINITELY NOT,UNKNOWN,,,,,,,Y,2001,,1," ",
NIDA-CTN-0001,AE,01_006180,2001,3,ACTIVE,STUDY DAY 3,3,880,RESTLESSNESS,RESTLESSNESS,PSYCHIATRIC DISORDERS,MODERATE,N,NONE,NONE,DEFINITELY NOT,"RESOLVED, NO SEQUELAE",,,,,,,,2001,2001,2,3,
NIDA-CTN-0001,AE,01_006180,2001,6,ACTIVE,STUDY DAY 6,6,881,RESTLESSNESS,RESTLESSNESS,PSYCHIATRIC DISORDERS,MILD,N,NONE,NONE,DEFINITELY NOT,UNKNOWN,,,,,,,,2001,,5," ",
NIDA-CTN-0001,AE,01_006180,2001,2,ACTIVE,STUDY DAY 2,2,882,RUNNY NOSE,RHINORRHOEA,"RESPIRATORY, THORACIC AND MEDIASTINAL DISORDERS",MODERATE,N,NONE,NONE,DEFINITELY NOT,"RESOLVED, NO SEQUELAE",,,,,,,Y,2001,,2," ",
NIDA-CTN-0001,AE,01_006180,2001,3,ACTIVE,STUDY DAY 3,3,883,VOMITING,VOMITING NOS,GASTROINTESTINAL DISORDERS,MILD,N,NONE,THERAPY PHARMACOLOGY (OTC OR RX),POSSIBLY,UNKNOWN,,,,,,,Y,2001,,3," ",
NIDA-CTN-0001,AE,01_006253,2002,1,ACTIVE,STUDY DAY 1,1,530,ACHES,PAIN NOS,GENERAL DISORDERS AND ADMINISTRATION SITE CONDITIONS,MODERATE,N,NONE,THERAPY PHARMACOLOGY (OTC OR RX) THERAPY NON-PHARMACOLOGY,REMOTELY,"RESOLVED, NO SEQUELAE",,,,,,,Y,2002,2002,1,4,
NIDA-CTN-0001,AE,01_006253,2002,5,ACTIVE,STUDY DAY 5,5,531,ACHES,PAIN,GENERAL DISORDERS AND ADMINISTRATION SITE CONDITIONS,MODERATE,N,NONE,THERAPY PHARMACOLOGY (OTC OR RX) THERAPY NON-PHARMACOLOGY,REMOTELY,"RESOLVED, NO SEQUELAE",,,,,,,Y,2002,2002,5,6,
NIDA-CTN-0001,AE,01_006253,2002,1,ACTIVE,STUDY DAY 1,1,532,ANXIETY,ANXIETY NEC,PSYCHIATRIC DISORDERS,MODERATE,N,NONE,THERAPY PHARMACOLOGY (OTC OR RX) THERAPY NON-PHARMACOLOGY,REMOTELY,"RESOLVED, NO SEQUELAE",,,,,,,Y,2001,2002,-365,4,
NIDA-CTN-0001,AE,01_006253,2002,5,ACTIVE,STUDY DAY 5,5,533,ANXIETY,ANXIETY,PSYCHIATRIC DISORDERS,MODERATE,N,NONE,THERAPY PHARMACOLOGY (OTC OR RX) THERAPY NON-PHARMACOLOGY,REMOTELY,"RESOLVED, NO SEQUELAE",,,,,,,Y,2002,2002,5,6,
NIDA-CTN-0001,AE,01_006253,2002,1,ACTIVE,STUDY DAY 1,1,534,DEPRESSION,DEPRESSION NOS,PSYCHIATRIC DISORDERS,MODERATE,N,NONE,THERAPY PHARMACOLOGY (OTC OR RX) THERAPY NON-PHARMACOLOGY,DEFINITELY NOT,"RESOLVED, NO SEQUELAE",,,,,,,Y,2002,2002,1,2,
NIDA-CTN-0001,AE,01_006253,2002,1,ACTIVE,STUDY DAY 1,1,535,DIARRHEA,DIARRHOEA,GASTROINTESTINAL DISORDERS,MODERATE,N,NONE,THERAPY PHARMACOLOGY (OTC OR RX) THERAPY NON-PHARMACOLOGY,REMOTELY,"RESOLVED, NO SEQUELAE",,,,,,,Y,2002,2002,1,3,
NIDA-CTN-0001,AE,01_006253,2002,1,ACTIVE,STUDY DAY 1,1,536,FEARFUL,"FEAR, FOCUS NEC",PSYCHIATRIC DISORDERS,MODERATE,N,NONE,THERAPY PHARMACOLOGY (OTC OR RX) THERAPY NON-PHARMACOLOGY,DEFINITELY NOT,"RESOLVED, NO SEQUELAE",,,,,,,Y,2002,2002,1,3,
NIDA-CTN-0001,AE,01_006253,2002,1,ACTIVE,STUDY DAY 1,1,537,GI CRAMPS,GASTROINTESTINAL PAIN,GASTROINTESTINAL DISORDERS,MODERATE,N,NONE,THERAPY PHARMACOLOGY (OTC OR RX) THERAPY NON-PHARMACOLOGY,REMOTELY,"RESOLVED, NO SEQUELAE",,,,,,,Y,2002,2002,1,2,
NIDA-CTN-0001,AE,01_006253,2002,1,ACTIVE,STUDY DAY 1,1,538,HEADACHE,HEADACHE NOS,NERVOUS SYSTEM DISORDERS,MODERATE,N,NONE,THERAPY PHARMACOLOGY (OTC OR RX) THERAPY NON-PHARMACOLOGY,REMOTELY,"RESOLVED, NO SEQUELAE",,,,,,,Y,2002,2002,1,3,
NIDA-CTN-0001,AE,01_006253,2002,4,ACTIVE,STUDY DAY 4,4,539,INSOMNIA,INSOMNIA,PSYCHIATRIC DISORDERS,MODERATE,N,NONE,THERAPY PHARMACOLOGY (OTC OR RX) THERAPY NON-PHARMACOLOGY,REMOTELY,"RESOLVED, NO SEQUELAE",,,,,,,Y,2002,2002,4,6,
NIDA-CTN-0001,AE,01_006253,2002,4,ACTIVE,STUDY DAY 4,4,540,JOINT ACHES,ARTHRALGIA,MUSCULOSKELETAL AND CONNECTIVE TISSUE DISORDERS,MODERATE,N,NONE,THERAPY PHARMACOLOGY (OTC OR RX) THERAPY NON-PHARMACOLOGY,REMOTELY,"RESOLVED, NO SEQUELAE",,,,,,,Y,2002,2002,4,5,
NIDA-CTN-0001,AE,01_006253,2002,1,ACTIVE,STUDY DAY 1,1,541,MUSCLE ACHES,MYALGIA,MUSCULOSKELETAL AND CONNECTIVE TISSUE DISORDERS,MODERATE,N,NONE,THERAPY PHARMACOLOGY (OTC OR RX) THERAPY NON-PHARMACOLOGY,REMOTELY,"RESOLVED, NO SEQUELAE",,,,,,,Y,2002,2002,1,2,
NIDA-CTN-0001,AE,01_006253,2002,4,ACTIVE,STUDY DAY 4,4,542,MUSCLE ACHES,MYALGIA,MUSCULOSKELETAL AND CONNECTIVE TISSUE DISORDERS,MODERATE,N,NONE,THERAPY PHARMACOLOGY (OTC OR RX) THERAPY NON-PHARMACOLOGY,REMOTELY,"RESOLVED, NO SEQUELAE",,,,,,,Y,2002,2002,4,6,
NIDA-CTN-0001,AE,01_006253,2002,1,ACTIVE,STUDY DAY 1,1,543,NASAL STUFFINESS,NASAL CONGESTION,"RESPIRATORY, THORACIC AND MEDIASTINAL DISORDERS",MODERATE,N,NONE,THERAPY PHARMACOLOGY (OTC OR RX) THERAPY NON-PHARMACOLOGY,REMOTELY,"RESOLVED, NO SEQUELAE",,,,,,,Y,2002,2002,1,2,
NIDA-CTN-0001,AE,01_006253,2002,2,ACTIVE,STUDY DAY 2,2,544,RESTLESS,RESTLESSNESS,PSYCHIATRIC DISORDERS,MODERATE,N,NONE,THERAPY PHARMACOLOGY (OTC OR RX) THERAPY NON-PHARMACOLOGY,REMOTELY,"RESOLVED, NO SEQUELAE",,,,,,,Y,2002,2002,2,3,
NIDA-CTN-0001,AE,01_006253,2002,1,ACTIVE,STUDY DAY 1,1,545,RUNNY NOSE,RHINORRHOEA,"RESPIRATORY, THORACIC AND MEDIASTINAL DISORDERS",MODERATE,N,NONE,THERAPY PHARMACOLOGY (OTC OR RX) THERAPY NON-PHARMACOLOGY,REMOTELY,"RESOLVED, NO SEQUELAE",,,,,,,Y,2002,2002,1,2,
NIDA-CTN-0001,AE,01_006253,2002,1,ACTIVE,STUDY DAY 1,1,546,SKIN CRAWLING,FORMICATION,NERVOUS SYSTEM DISORDERS,MODERATE,N,NONE,THERAPY PHARMACOLOGY (OTC OR RX) THERAPY NON-PHARMACOLOGY,REMOTELY,"RESOLVED, NO SEQUELAE",,,,,,,Y,2002,2002,1,5,
NIDA-CTN-0001,AE,01_006253,2002,1,ACTIVE,STUDY DAY 1,1,547,SWEATS,SWEATING INCREASED,SKIN AND SUBCUTANEOUS TISSUE DISORDERS,MODERATE,N,NONE,THERAPY PHARMACOLOGY (OTC OR RX) THERAPY NON-PHARMACOLOGY,REMOTELY,"RESOLVED, NO SEQUELAE",,,,,,,Y,2002,2002,1,2,
NIDA-CTN-0001,AE,01_006253,2002,5,ACTIVE,STUDY DAY 5,5,548,TIRED,FATIGUE,GENERAL DISORDERS AND ADMINISTRATION SITE CONDITIONS,MODERATE,N,NONE,THERAPY PHARMACOLOGY (OTC OR RX) THERAPY NON-PHARMACOLOGY,REMOTELY,"RESOLVED, NO SEQUELAE",,,,,,,Y,2002,2002,5,6,
NIDA-CTN-0001,AE,01_006253,2002,1,ACTIVE,STUDY DAY 1,1,549,WEAK,ASTHENIA,GENERAL DISORDERS AND ADMINISTRATION SITE CONDITIONS,MODERATE,N,NONE,THERAPY PHARMACOLOGY (OTC OR RX) THERAPY NON-PHARMACOLOGY,REMOTELY,"RESOLVED, NO SEQUELAE",,,,,,,Y,2002,2002,1,2,
NIDA-CTN-0001,AE,01_006566,2001,1,ACTIVE,STUDY DAY 1,1,765,ABDOMINAL CRAMPING,ABDOMINAL PAIN NOS,GASTROINTESTINAL DISORDERS,MILD,N,NONE,NONE,REMOTELY,"RESOLVED, NO SEQUELAE",,,,,,,,2001,2001,1,2,
NIDA-CTN-0001,AE,01_006566,2001,3,ACTIVE,STUDY DAY 3,3,766,ANXIETY,ANXIETY,PSYCHIATRIC DISORDERS,MILD,N,NONE,THERAPY PHARMACOLOGY (OTC OR RX),POSSIBLY,"RESOLVED, NO SEQUELAE",,,,,,,Y,2001,2001,2,12,
NIDA-CTN-0001,AE,01_006566,2001,1,ACTIVE,STUDY DAY 1,1,767,BACKACHE,BACK PAIN,MUSCULOSKELETAL AND CONNECTIVE TISSUE DISORDERS,MILD,N,NONE,NONE,REMOTELY,"RESOLVED, NO SEQUELAE",,,,,,,,2001,2001,1,2,
NIDA-CTN-0001,AE,01_006566,2001,2,ACTIVE,STUDY DAY 2,2,768,HEADACHE,HEADACHE NOS,NERVOUS SYSTEM DISORDERS,MILD,N,NONE,THERAPY PHARMACOLOGY (OTC OR RX),POSSIBLY,"RESOLVED, NO SEQUELAE",,,,,,,Y,2001,2001,1,15,
NIDA-CTN-0001,AE,01_006566,2001,2,ACTIVE,STUDY DAY 2,2,769,INSOMNIA,INSOMNIA,PSYCHIATRIC DISORDERS,MILD,N,NONE,THERAPY PHARMACOLOGY (OTC OR RX),POSSIBLY,"RESOLVED, NO SEQUELAE",,,,,,,Y,2001,2001,1,15,
NIDA-CTN-0001,AE,01_006566,2001,13,ACTIVE,STUDY DAY 13,13,770,INSOMNIA,INSOMNIA,PSYCHIATRIC DISORDERS,MILD,N,NONE,THERAPY PHARMACOLOGY (OTC OR RX),POSSIBLY,"RESOLVED, NO SEQUELAE",,,,,,,Y,2001,2001,13,14,
NIDA-CTN-0001,AE,01_006566,2001,2,ACTIVE,STUDY DAY 2,2,771,JOINTPAIN,ARTHRALGIA,MUSCULOSKELETAL AND CONNECTIVE TISSUE DISORDERS,MILD,N,NONE,THERAPY PHARMACOLOGY (OTC OR RX),POSSIBLY,"RESOLVED, NO SEQUELAE",,,,,,,Y,2001,2001,1,11,
NIDA-CTN-0001,AE,01_006566,2001,3,ACTIVE,STUDY DAY 3,3,772,NAUSEA,NAUSEA,GASTROINTESTINAL DISORDERS,MILD,N,NONE,THERAPY PHARMACOLOGY (OTC OR RX),POSSIBLY,"RESOLVED, NO SEQUELAE",,,,,,,Y,2001,2001,2,3,
NIDA-CTN-0001,AE,01_006566,2001,1,ACTIVE,STUDY DAY 1,1,773,SWEATING,SWEATING INCREASED,SKIN AND SUBCUTANEOUS TISSUE DISORDERS,MILD,N,NONE,NONE,REMOTELY,"RESOLVED, NO SEQUELAE",,,,,,,,2001,2001,1,2,
NIDA-CTN-0001,AE,01_006566,2001,5,ACTIVE,STUDY DAY 5,5,774,TIREDNESS,FATIGUE,GENERAL DISORDERS AND ADMINISTRATION SITE CONDITIONS,MILD,N,NONE,NONE,POSSIBLY,"RESOLVED, NO SEQUELAE",,,,,,,,2001,2001,5,6,
NIDA-CTN-0001,AE,01_006566,2001,3,ACTIVE,STUDY DAY 3,3,775,UTI,URINARY TRACT INFECTION,INFECTIONS AND INFESTATIONS,MODERATE,N,NONE,THERAPY PHARMACOLOGY (OTC OR RX),REMOTELY,"RESOLVED, NO SEQUELAE",,,,,,,Y,2001,2001,3,9,
NIDA-CTN-0001,AE,01_008148,2001,1,ACTIVE,STUDY DAY 1,1,262,ACHES,PAIN NOS,GENERAL DISORDERS AND ADMINISTRATION SITE CONDITIONS,MODERATE,N,NONE,THERAPY PHARMACOLOGY (OTC OR RX) THERAPY NON-PHARMACOLOGY,REMOTELY,"RESOLVED, NO SEQUELAE",,,,,,,Y,2001,2001,1,3,
NIDA-CTN-0001,AE,01_008148,2001,4,ACTIVE,STUDY DAY 4,4,263,ACHES,PAIN,GENERAL DISORDERS AND ADMINISTRATION SITE CONDITIONS,MODERATE,N,NONE,THERAPY PHARMACOLOGY (OTC OR RX) THERAPY NON-PHARMACOLOGY,REMOTELY,"RESOLVED, NO SEQUELAE",,,,,,,Y,2001,2001,4,3,
NIDA-CTN-0001,AE,01_008148,2001,1,ACTIVE,STUDY DAY 1,1,264,ACHY,PAIN NOS,GENERAL DISORDERS AND ADMINISTRATION SITE CONDITIONS,MODERATE,N,NONE,THERAPY PHARMACOLOGY (OTC OR RX) THERAPY NON-PHARMACOLOGY,REMOTELY,"RESOLVED, NO SEQUELAE",,,,,,,Y,2001,2001,1,2,
NIDA-CTN-0001,AE,01_008148,2001,14,ACTIVE,STUDY DAY 14,14,265,AGITATION,AGITATION,PSYCHIATRIC DISORDERS,MODERATE,N,NONE,THERAPY PHARMACOLOGY (OTC OR RX) THERAPY NON-PHARMACOLOGY,REMOTELY,UNKNOWN,,,,,,,Y,2001,,14," ",
NIDA-CTN-0001,AE,01_008148,2001,1,ACTIVE,STUDY DAY 1,1,266,ANXIETY,ANXIETY,PSYCHIATRIC DISORDERS,MODERATE,N,NONE,THERAPY PHARMACOLOGY (OTC OR RX) THERAPY NON-PHARMACOLOGY,REMOTELY,"RESOLVED, NO SEQUELAE",,,,,,,Y,2001,2001,1,9,
NIDA-CTN-0001,AE,01_008148,2001,10,ACTIVE,STUDY DAY 10,10,267,ANXIETY,ANXIETY,PSYCHIATRIC DISORDERS,MODERATE,N,NONE,THERAPY PHARMACOLOGY (OTC OR RX) THERAPY NON-PHARMACOLOGY,REMOTELY,"NOT YET RESOLVED, BUT IMPROVING",,,,,,,Y,2001,,10," ",
NIDA-CTN-0001,AE,01_008148,2001,10,ACTIVE,STUDY DAY 10,10,268,BACK PAIN,BACK PAIN,MUSCULOSKELETAL AND CONNECTIVE TISSUE DISORDERS,MODERATE,N,NONE,THERAPY PHARMACOLOGY (OTC OR RX) THERAPY NON-PHARMACOLOGY,DEFINITELY NOT,"RESOLVED, NO SEQUELAE",,,,,,,Y,2001,2001,10,11,
NIDA-CTN-0001,AE,01_008148,2001,13,ACTIVE,STUDY DAY 13,13,269,BACK PAIN,BACK PAIN,MUSCULOSKELETAL AND CONNECTIVE TISSUE DISORDERS,MODERATE,N,NONE,THERAPY PHARMACOLOGY (OTC OR RX) THERAPY NON-PHARMACOLOGY,POSSIBLY,"NOT YET RESOLVED, BUT IMPROVING",,,,,,,Y,2001,,13," ",
NIDA-CTN-0001,AE,01_008148,2001,2,ACTIVE,STUDY DAY 2,2,270,BACK TIGHTNESS,MUSCLE TIGHTNESS,MUSCULOSKELETAL AND CONNECTIVE TISSUE DISORDERS,MODERATE,N,NONE,THERAPY PHARMACOLOGY (OTC OR RX) THERAPY NON-PHARMACOLOGY,REMOTELY,"RESOLVED, NO SEQUELAE",,,,,,,Y,2001,2001,2,3,
NIDA-CTN-0001,AE,01_008148,2001,3,ACTIVE,STUDY DAY 3,3,271,BACKPAIN,BACK PAIN,MUSCULOSKELETAL AND CONNECTIVE TISSUE DISORDERS,MODERATE,N,NONE,THERAPY PHARMACOLOGY (OTC OR RX) THERAPY NON-PHARMACOLOGY,REMOTELY,"RESOLVED, NO SEQUELAE",,,,,,,Y,2001,2001,3,5,
NIDA-CTN-0001,AE,01_008148,2001,6,ACTIVE,STUDY DAY 6,6,272,CHEST TIGHTENING,CHEST DISCOMFORT,GENERAL DISORDERS AND ADMINISTRATION SITE CONDITIONS,SEVERE,N,NONE,THERAPY PHARMACOLOGY (OTC OR RX) THERAPY NON-PHARMACOLOGY,POSSIBLY,"RESOLVED, NO SEQUELAE",,,,,,,Y,2001,2001,6,7,
NIDA-CTN-0001,AE,01_008148,2001,2,ACTIVE,STUDY DAY 2,2,273,COLD SWEATS,COLD SWEAT,SKIN AND SUBCUTANEOUS TISSUE DISORDERS,MODERATE,N,NONE,THERAPY PHARMACOLOGY (OTC OR RX) THERAPY NON-PHARMACOLOGY,REMOTELY,"RESOLVED, NO SEQUELAE",,,,,,,Y,2001,2001,2,4,
NIDA-CTN-0001,AE,01_008148,2001,12,ACTIVE,STUDY DAY 12,12,274,DIARRHEA,DIARRHOEA NOS,GASTROINTESTINAL DISORDERS,MODERATE,N,NONE,THERAPY PHARMACOLOGY (OTC OR RX) THERAPY NON-PHARMACOLOGY,POSSIBLY,"RESOLVED, NO SEQUELAE",,,,,,,Y,2001,2001,12,14,
NIDA-CTN-0001,AE,01_008148,2001,5,ACTIVE,STUDY DAY 5,5,275,EDGYNESS,NERVOUSNESS,PSYCHIATRIC DISORDERS,MODERATE,N,NONE,THERAPY PHARMACOLOGY (OTC OR RX) THERAPY NON-PHARMACOLOGY,REMOTELY,"RESOLVED, NO SEQUELAE",,,,,,,Y,2001,2001,5,6,
NIDA-CTN-0001,AE,01_008148,2001,2,ACTIVE,STUDY DAY 2,2,276,FATIGUE,FATIGUE,GENERAL DISORDERS AND ADMINISTRATION SITE CONDITIONS,MODERATE,N,NONE,THERAPY PHARMACOLOGY (OTC OR RX) THERAPY NON-PHARMACOLOGY,REMOTELY,"RESOLVED, NO SEQUELAE",,,,,,,Y,2001,2001,2,3,
NIDA-CTN-0001,AE,01_008148,2001,14,ACTIVE,STUDY DAY 14,14,277,GENERALIZED PAIN,PAIN,GENERAL DISORDERS AND ADMINISTRATION SITE CONDITIONS,MODERATE,N,NONE,THERAPY PHARMACOLOGY (OTC OR RX) THERAPY NON-PHARMACOLOGY,REMOTELY,"NOT YET RESOLVED, BUT IMPROVING",,,,,,,Y,2001,,14," ",
NIDA-CTN-0001,AE,01_008148,2001,14,ACTIVE,STUDY DAY 14,14,278,HEADACHES,HEADACHE,NERVOUS SYSTEM DISORDERS,MODERATE,N,NONE,THERAPY PHARMACOLOGY (OTC OR RX) THERAPY NON-PHARMACOLOGY,REMOTELY,"NOT YET RESOLVED, BUT IMPROVING",,,,,,,Y,2001,,14," ",
NIDA-CTN-0001,AE,01_008148,2001,2,ACTIVE,STUDY DAY 2,2,279,INSOMNIA,INSOMNIA,PSYCHIATRIC DISORDERS,MODERATE,N,NONE,THERAPY PHARMACOLOGY (OTC OR RX) THERAPY NON-PHARMACOLOGY,REMOTELY,"RESOLVED, NO SEQUELAE",,,,,,,Y,2001,2001,2,3,
NIDA-CTN-0001,AE,01_008148,2001,4,ACTIVE,STUDY DAY 4,4,280,INSOMNIA,INSOMNIA,PSYCHIATRIC DISORDERS,MODERATE,N,NONE,THERAPY PHARMACOLOGY (OTC OR RX) THERAPY NON-PHARMACOLOGY,REMOTELY,"RESOLVED, NO SEQUELAE",,,,,,,Y,2001,2001,4,5,
NIDA-CTN-0001,AE,01_008148,2001,25,FOLLOW-UP 1,FOLLOW-UP 1,15,281,INSOMNIA,INSOMNIA,PSYCHIATRIC DISORDERS,MODERATE,N,NONE,THERAPY PHARMACOLOGY (OTC OR RX) THERAPY NON-PHARMACOLOGY,POSSIBLY,"NOT YET RESOLVED, BUT IMPROVING",,,,,,,Y,2001,,25," ",
NIDA-CTN-0001,AE,01_008148,2001,25,FOLLOW-UP 1,FOLLOW-UP 1,15,282,IRRITABILITY RESTLESS,NOT CODED,NOT CODED,MODERATE,N,NONE,THERAPY PHARMACOLOGY (OTC OR RX) THERAPY NON-PHARMACOLOGY,POSSIBLY,"NOT YET RESOLVED, BUT IMPROVING",,,,,,,Y,2001,,25," ",
NIDA-CTN-0001,AE,01_008148,2001,5,ACTIVE,STUDY DAY 5,5,283,IRRITABLE,IRRITABILITY,PSYCHIATRIC DISORDERS,MODERATE,N,NONE,THERAPY PHARMACOLOGY (OTC OR RX) THERAPY NON-PHARMACOLOGY,REMOTELY,"RESOLVED, NO SEQUELAE",,,,,,,Y,2001,2001,5,8,
NIDA-CTN-0001,AE,01_008148,2001,25,FOLLOW-UP 1,FOLLOW-UP 1,15,284,KNEE PAIN,ARTHRALGIA,MUSCULOSKELETAL AND CONNECTIVE TISSUE DISORDERS,MODERATE,N,NONE,THERAPY PHARMACOLOGY (OTC OR RX) THERAPY NON-PHARMACOLOGY,REMOTELY,"NOT YET RESOLVED, BUT IMPROVING",,,,,,,Y,2001,,25," ",
NIDA-CTN-0001,AE,01_008148,2001,13,ACTIVE,STUDY DAY 13,13,285,LEG ACHES,PAIN IN LIMB,MUSCULOSKELETAL AND CONNECTIVE TISSUE DISORDERS,MODERATE,N,NONE,THERAPY PHARMACOLOGY (OTC OR RX) THERAPY NON-PHARMACOLOGY,POSSIBLY,"RESOLVED, NO SEQUELAE",,,,,,,Y,2001,2001,13,14,
NIDA-CTN-0001,AE,01_008148,2001,5,ACTIVE,STUDY DAY 5,5,286,MUSCLE  ACHES,MYALGIA,MUSCULOSKELETAL AND CONNECTIVE TISSUE DISORDERS,SEVERE,N,NONE,THERAPY PHARMACOLOGY (OTC OR RX) THERAPY NON-PHARMACOLOGY,REMOTELY,"RESOLVED, NO SEQUELAE",,,,,,,Y,2001,2001,5,12,
NIDA-CTN-0001,AE,01_008148,2001,9,ACTIVE,STUDY DAY 9,9,287,MUSCLE CRAMPS,MUSCLE CRAMP,MUSCULOSKELETAL AND CONNECTIVE TISSUE DISORDERS,MODERATE,N,NONE,THERAPY PHARMACOLOGY (OTC OR RX) THERAPY NON-PHARMACOLOGY,DEFINITELY NOT,"RESOLVED, NO SEQUELAE",,,,,,,Y,2001,2001,9,11,
NIDA-CTN-0001,AE,01_008148,2001,3,ACTIVE,STUDY DAY 3,3,288,MUSCLE PAIN,MYALGIA,MUSCULOSKELETAL AND CONNECTIVE TISSUE DISORDERS,MODERATE,N,NONE,THERAPY PHARMACOLOGY (OTC OR RX) THERAPY NON-PHARMACOLOGY,REMOTELY,"RESOLVED, NO SEQUELAE",,,,,,,Y,2001,2001,3,4,
NIDA-CTN-0001,AE,01_008148,2001,8,ACTIVE,STUDY DAY 8,8,289,MUSCLE PAIN,MYALGIA,MUSCULOSKELETAL AND CONNECTIVE TISSUE DISORDERS,MODERATE,N,NONE,THERAPY PHARMACOLOGY (OTC OR RX) THERAPY NON-PHARMACOLOGY,REMOTELY,"RESOLVED, NO SEQUELAE",,,,,,,Y,2001,2001,8,8,
NIDA-CTN-0001,AE,01_008148,2001,14,ACTIVE,STUDY DAY 14,14,290,MUSCLE PAIN,MYALGIA,MUSCULOSKELETAL AND CONNECTIVE TISSUE DISORDERS,MILD,N,NONE,THERAPY PHARMACOLOGY (OTC OR RX) THERAPY NON-PHARMACOLOGY,POSSIBLY,"NOT YET RESOLVED, BUT IMPROVING",,,,,,,Y,2001,2001,14,15,
NIDA-CTN-0001,AE,01_008148,2001,6,ACTIVE,STUDY DAY 6,6,291,MUSCLE SPASM,MUSCLE SPASMS,MUSCULOSKELETAL AND CONNECTIVE TISSUE DISORDERS,MODERATE,N,NONE,THERAPY PHARMACOLOGY (OTC OR RX) THERAPY NON-PHARMACOLOGY,REMOTELY,"RESOLVED, NO SEQUELAE",,,,,,,Y,2001,2001,6,7,
NIDA-CTN-0001,AE,01_008148,2001,11,ACTIVE,STUDY DAY 11,11,292,MUSCLE SPASM,MUSCLE SPASMS,MUSCULOSKELETAL AND CONNECTIVE TISSUE DISORDERS,MODERATE,N,NONE,THERAPY PHARMACOLOGY (OTC OR RX) THERAPY NON-PHARMACOLOGY,REMOTELY,"RESOLVED, NO SEQUELAE",,,,,,,Y,2001,2001,11,12,
NIDA-CTN-0001,AE,01_008148,2001,25,FOLLOW-UP 1,FOLLOW-UP 1,15,293,MUSCLE SPASM,MUSCLE SPASMS,MUSCULOSKELETAL AND CONNECTIVE TISSUE DISORDERS,MODERATE,N,NONE,THERAPY PHARMACOLOGY (OTC OR RX) THERAPY NON-PHARMACOLOGY,POSSIBLY,"NOT YET RESOLVED, BUT IMPROVING",,,,,,,Y,2001,,25," ",
NIDA-CTN-0001,AE,01_008148,2001,7,ACTIVE,STUDY DAY 7,7,294,NECK SPASM,MUSCLE SPASMS,MUSCULOSKELETAL AND CONNECTIVE TISSUE DISORDERS,MODERATE,N,NONE,THERAPY PHARMACOLOGY (OTC OR RX) THERAPY NON-PHARMACOLOGY,DEFINITELY NOT,"RESOLVED, NO SEQUELAE",,,,,,,Y,2001,2001,7,8,
NIDA-CTN-0001,AE,01_008148,2001,14,ACTIVE,STUDY DAY 14,14,295,RESTLESS,RESTLESSNESS,PSYCHIATRIC DISORDERS,MODERATE,N,NONE,THERAPY PHARMACOLOGY (OTC OR RX) THERAPY NON-PHARMACOLOGY,REMOTELY,UNKNOWN,,,,,,,Y,2001,,14," ",
NIDA-CTN-0001,AE,01_008148,2001,13,ACTIVE,STUDY DAY 13,13,296,RUNNY  N0SE,RHINORRHOEA,"RESPIRATORY, THORACIC AND MEDIASTINAL DISORDERS",MODERATE,N,NONE,THERAPY PHARMACOLOGY (OTC OR RX) THERAPY NON-PHARMACOLOGY,POSSIBLY,"RESOLVED, NO SEQUELAE",,,,,,,Y,2001,2001,13,14,
NIDA-CTN-0001,AE,01_008148,2001,13,ACTIVE,STUDY DAY 13,13,297,RUNNY EYES,LACRIMATION INCREASED,EYE DISORDERS,MODERATE,N,NONE,THERAPY PHARMACOLOGY (OTC OR RX) THERAPY NON-PHARMACOLOGY,POSSIBLY,"RESOLVED, NO SEQUELAE",,,,,,,Y,2001,2001,13,14,
NIDA-CTN-0001,AE,01_008148,2001,1,ACTIVE,STUDY DAY 1,1,298,SPASM,MUSCLE SPASMS,MUSCULOSKELETAL AND CONNECTIVE TISSUE DISORDERS,MODERATE,N,NONE,THERAPY PHARMACOLOGY (OTC OR RX) THERAPY NON-PHARMACOLOGY,REMOTELY,"RESOLVED, NO SEQUELAE",,,,,,,Y,2001,2001,1,2,
NIDA-CTN-0001,AE,01_008148,2001,2,ACTIVE,STUDY DAY 2,2,299,SPASM,MUSCLE SPASMS,MUSCULOSKELETAL AND CONNECTIVE TISSUE DISORDERS,MODERATE,N,NONE,THERAPY PHARMACOLOGY (OTC OR RX) THERAPY NON-PHARMACOLOGY,REMOTELY,"RESOLVED, NO SEQUELAE",,,,,,,Y,2001,2001,2,4,
NIDA-CTN-0001,AE,01_008148,2001,3,ACTIVE,STUDY DAY 3,3,300,SPASM,MUSCLE SPASMS,MUSCULOSKELETAL AND CONNECTIVE TISSUE DISORDERS,MODERATE,N,NONE,THERAPY PHARMACOLOGY (OTC OR RX) THERAPY NON-PHARMACOLOGY,REMOTELY,"RESOLVED, NO SEQUELAE",,,,,,,Y,2001,2001,3,4,
NIDA-CTN-0001,AE,01_008148,2001,6,ACTIVE,STUDY DAY 6,6,301,SPASM,MUSCLE SPASMS,MUSCULOSKELETAL AND CONNECTIVE TISSUE DISORDERS,SEVERE,N,NONE,THERAPY PHARMACOLOGY (OTC OR RX) THERAPY NON-PHARMACOLOGY,POSSIBLY,"RESOLVED, NO SEQUELAE",,,,,,,Y,2001,2001,6,8,
NIDA-CTN-0001,AE,01_008148,2001,25,FOLLOW-UP 1,FOLLOW-UP 1,15,302,SWEATS,SWEATING INCREASED,SKIN AND SUBCUTANEOUS TISSUE DISORDERS,MODERATE,N,NONE,THERAPY PHARMACOLOGY (OTC OR RX) THERAPY NON-PHARMACOLOGY,POSSIBLY,"NOT YET RESOLVED, BUT IMPROVING",,,,,,,Y,2001,,25," ",
NIDA-CTN-0001,AE,01_008148,2001,9,ACTIVE,STUDY DAY 9,9,303,TINNITIS,TINNITUS,EAR AND LABYRINTH DISORDERS,MODERATE,N,NONE,THERAPY PHARMACOLOGY (OTC OR RX) THERAPY NON-PHARMACOLOGY,DEFINITELY NOT,"RESOLVED, NO SEQUELAE",,,,,,,Y,2001,2001,9,10,
NIDA-CTN-0001,AE,01_009365,2001,2,ACTIVE,STUDY DAY 2,2,760,INSOMNIA,INSOMNIA,PSYCHIATRIC DISORDERS,MILD,N,NONE,THERAPY PHARMACOLOGY (OTC OR RX),POSSIBLY,"RESOLVED, NO SEQUELAE",,,,,,,Y,2001,2001,1,3,
NIDA-CTN-0001,AE,01_009365,2001,2,ACTIVE,STUDY DAY 2,2,761,JOINTPAIN,ARTHRALGIA,MUSCULOSKELETAL AND CONNECTIVE TISSUE DISORDERS,MILD,N,NONE,THERAPY PHARMACOLOGY (OTC OR RX),POSSIBLY,"RESOLVED, NO SEQUELAE",,,,,,,Y,2001,2001,2,3,
NIDA-CTN-0001,AE,01_009365,2001,1,ACTIVE,STUDY DAY 1,1,762,NAUSEA,NAUSEA,GASTROINTESTINAL DISORDERS,MILD,N,NONE,NONE,POSSIBLY,"RESOLVED, NO SEQUELAE",,,,,,,,2001,2001,1,3,
NIDA-CTN-0001,AE,01_009365,2001,1,ACTIVE,STUDY DAY 1,1,763,SNEEZING,SNEEZING,"RESPIRATORY, THORACIC AND MEDIASTINAL DISORDERS",MILD,N,NONE,NONE,POSSIBLY,"RESOLVED, NO SEQUELAE",,,,,,,,2001,2001,1,3,
NIDA-CTN-0001,AE,01_009365,2001,1,ACTIVE,STUDY DAY 1,1,764,WATERY EYES,LACRIMATION INCREASED,EYE DISORDERS,MILD,N,NONE,NONE,POSSIBLY,"RESOLVED, NO SEQUELAE",,,,,,,,2001,2001,1,3,
NIDA-CTN-0001,AE,01_009835,2002," ",SCREENING,"BASELINE, ANY DAY PRIOR TO FIRST DOSE",0,1408,APROXIMATELY 3 HOURS AFTER CONSENTING TO STUDY PT C O SUB STERNAL CHEST PAIN RADIATING DOWN L ARM AND TO JAW TRANS PORTED VIA EMS TO M P HOSPITAL ADMITTED FOR OBSERVATION R O MI,CHEST PAIN,GENERAL DISORDERS AND ADMINISTRATION SITE CONDITIONS,LIFE-THREATENING,Y,NONE,,DEFINITELY NOT,HOSPITALIZATION,,,,Y,,,,2002,," "," ",DURING/AFTER
NIDA-CTN-0001,AE,01_010909,2001,1,ACTIVE,STUDY DAY 1,1,1071,ABDOMINAL CRAMPS,ABDOMINAL PAIN,GASTROINTESTINAL DISORDERS,SEVERE,N,NONE,NONE,DEFINITELY NOT,"RESOLVED, NO SEQUELAE",,,,,,,,2001,2001,1,1,
NIDA-CTN-0001,AE,01_010909,2001,2,ACTIVE,STUDY DAY 2,2,1072,ANXIETY,ANXIETY NEC,PSYCHIATRIC DISORDERS,MODERATE,N,NONE,NONE,DEFINITELY NOT,"RESOLVED, NO SEQUELAE",,,,,,,,2001,2001,1,1,
NIDA-CTN-0001,AE,01_010909,2001,3,ACTIVE,STUDY DAY 3,3,1073,BACK PAIN,BACK PAIN,MUSCULOSKELETAL AND CONNECTIVE TISSUE DISORDERS,MILD,N,NONE,NONE,DEFINITELY NOT,"RESOLVED, NO SEQUELAE",,,,,,,,2001,2001,3,3,
NIDA-CTN-0001,AE,01_010909,2001,6,ACTIVE,STUDY DAY 6,6,1074,BACK PAIN,BACK PAIN,MUSCULOSKELETAL AND CONNECTIVE TISSUE DISORDERS,MILD,N,NONE,NONE,DEFINITELY NOT,"RESOLVED, NO SEQUELAE",,,,,,,,2001,2001,6,6,
NIDA-CTN-0001,AE,01_010909,2001,7,ACTIVE,STUDY DAY 7,7,1075,BACK PAIN,BACK PAIN,MUSCULOSKELETAL AND CONNECTIVE TISSUE DISORDERS,MILD,N,NONE,NONE,PROBABLY,"RESOLVED, NO SEQUELAE",,,,,,,,2001,2001,7,7,
NIDA-CTN-0001,AE,01_010909,2001,8,ACTIVE,STUDY DAY 8,8,1076,BACK PAIN,BACK PAIN,MUSCULOSKELETAL AND CONNECTIVE TISSUE DISORDERS,MILD,N,NONE,NONE,PROBABLY,"RESOLVED, NO SEQUELAE",,,,,,,,2001,2001,8,9,
NIDA-CTN-0001,AE,01_010909,2001,1,ACTIVE,STUDY DAY 1,1,1077,BACKACHE,BACK PAIN,MUSCULOSKELETAL AND CONNECTIVE TISSUE DISORDERS,SEVERE,N,NONE,NONE,DEFINITELY NOT,"RESOLVED, NO SEQUELAE",,,,,,,,2001,2001,1,1,
NIDA-CTN-0001,AE,01_010909,2001,12,ACTIVE,STUDY DAY 12,12,1078,DIZZINESS,DIZZINESS (EXCL VERTIGO),NERVOUS SYSTEM DISORDERS,MILD,N,NONE,NONE,REMOTELY,"RESOLVED, NO SEQUELAE",,,,,,,,2001,2001,11,11,
NIDA-CTN-0001,AE,01_010909,2001,3,ACTIVE,STUDY DAY 3,3,1079,HEADACHE,HEADACHE NOS,NERVOUS SYSTEM DISORDERS,MILD,N,NONE,THERAPY PHARMACOLOGY (OTC OR RX),REMOTELY,"RESOLVED, NO SEQUELAE",,,,,,,Y,2001,2001,2,3,
NIDA-CTN-0001,AE,01_010909,2001,4,ACTIVE,STUDY DAY 4,4,1080,HEADACHE,HEADACHE NOS,NERVOUS SYSTEM DISORDERS,MILD,N,NONE,THERAPY PHARMACOLOGY (OTC OR RX),REMOTELY,"RESOLVED, NO SEQUELAE",,,,,,,Y,2001,2001,3,4,
NIDA-CTN-0001,AE,01_010909,2002,42,FOLLOW-UP 1,FOLLOW-UP 1,15,1081,HEADACHE,HEADACHE NOS,NERVOUS SYSTEM DISORDERS,MILD,N,NONE,THERAPY PHARMACOLOGY (OTC OR RX),DEFINITELY NOT,"RESOLVED, NO SEQUELAE",,,,,,,Y,2002,2002,36,36,
NIDA-CTN-0001,AE,01_010909,2001,1,ACTIVE,STUDY DAY 1,1,1082,INSOMNIA,INSOMNIA,PSYCHIATRIC DISORDERS,SEVERE,N,NONE,NONE,DEFINITELY NOT,"RESOLVED, NO SEQUELAE",,,,,,,,2001,2001,-1,1,
NIDA-CTN-0001,AE,01_010909,2001,2,ACTIVE,STUDY DAY 2,2,1083,INSOMNIA,INSOMNIA,PSYCHIATRIC DISORDERS,MILD,N,NONE,NONE,DEFINITELY NOT,"RESOLVED, NO SEQUELAE",,,,,,,,2001,2001,1,1,
NIDA-CTN-0001,AE,01_010909,2001,3,ACTIVE,STUDY DAY 3,3,1084,INSOMNIA,INSOMNIA,PSYCHIATRIC DISORDERS,MODERATE,N,NONE,THERAPY PHARMACOLOGY (OTC OR RX),REMOTELY,"RESOLVED, NO SEQUELAE",,,,,,,Y,2001,2001,2,4,
NIDA-CTN-0001,AE,01_010909,2001,1,ACTIVE,STUDY DAY 1,1,1085,JOINT PAIN,ARTHRALGIA,MUSCULOSKELETAL AND CONNECTIVE TISSUE DISORDERS,MILD,N,NONE,NONE,DEFINITELY NOT,"RESOLVED, NO SEQUELAE",,,,,,,,2001,2001,-1,1,
NIDA-CTN-0001,AE,01_010909,2001,12,ACTIVE,STUDY DAY 12,12,1086,NAUSEA,NAUSEA,GASTROINTESTINAL DISORDERS,MILD,N,NONE,NONE,REMOTELY,"RESOLVED, NO SEQUELAE",,,,,,,,2001,2001,11,11,
NIDA-CTN-0001,AE,01_010909,2001,1,ACTIVE,STUDY DAY 1,1,1087,RESTLESSNESS,RESTLESSNESS,PSYCHIATRIC DISORDERS,SEVERE,N,NONE,NONE,DEFINITELY NOT,"RESOLVED, NO SEQUELAE",,,,,,,,2001,2001,-1,1,
NIDA-CTN-0001,AE,01_010909,2001,1,ACTIVE,STUDY DAY 1,1,1088,RUNNY NOSE,RHINORRHOEA,"RESPIRATORY, THORACIC AND MEDIASTINAL DISORDERS",MODERATE,N,NONE,NONE,DEFINITELY NOT,"RESOLVED, NO SEQUELAE",,,,,,,,2001,2001,1,1,
NIDA-CTN-0001,AE,01_010909,2001,2,ACTIVE,STUDY DAY 2,2,1089,RUNNY NOSE,RHINORRHOEA,"RESPIRATORY, THORACIC AND MEDIASTINAL DISORDERS",MILD,N,NONE,NONE,DEFINITELY NOT,"RESOLVED, NO SEQUELAE",,,,,,,,2001,2001,2,4,
NIDA-CTN-0001,AE,01_010909,2001,6,ACTIVE,STUDY DAY 6,6,1090,RUNNY NOSE,RHINORRHOEA,"RESPIRATORY, THORACIC AND MEDIASTINAL DISORDERS",MILD,N,NONE,NONE,DEFINITELY NOT,"RESOLVED, NO SEQUELAE",,,,,,,,2001,2001,6,6,
NIDA-CTN-0001,AE,01_010909,2001,7,ACTIVE,STUDY DAY 7,7,1091,RUNNY NOSE,RHINORRHOEA,"RESPIRATORY, THORACIC AND MEDIASTINAL DISORDERS",MILD,N,NONE,NONE,PROBABLY,"RESOLVED, NO SEQUELAE",,,,,,,,2001,2001,7,7,
NIDA-CTN-0001,AE,01_010909,2001,8,ACTIVE,STUDY DAY 8,8,1092,RUNNY NOSE,RHINORRHOEA,"RESPIRATORY, THORACIC AND MEDIASTINAL DISORDERS",MILD,N,NONE,NONE,PROBABLY,"RESOLVED, NO SEQUELAE",,,,,,,,2001,2001,8,9,
NIDA-CTN-0001,AE,01_012272,2002,3,ACTIVE,STUDY DAY 3,3,1956,ABDOMINAL PAIN,ABDOMINAL PAIN,GASTROINTESTINAL DISORDERS,MODERATE,N,NONE,THERAPY PHARMACOLOGY (OTC OR RX),DEFINITELY NOT,"RESOLVED, NO SEQUELAE",,,,,,,Y,2002,2002,2,3,
NIDA-CTN-0001,AE,01_012272,2002,2,ACTIVE,STUDY DAY 2,2,1957,ANXIETY,ANXIETY,PSYCHIATRIC DISORDERS,MODERATE,N,NONE,THERAPY PHARMACOLOGY (OTC OR RX),DEFINITELY NOT,"NOT YET RESOLVED, WORSENING",,,,,,,Y,2002,,2," ",
NIDA-CTN-0001,AE,01_012272,2002,3,ACTIVE,STUDY DAY 3,3,1958,ANXIETY,ANXIETY,PSYCHIATRIC DISORDERS,MODERATE,N,NONE,THERAPY PHARMACOLOGY (OTC OR RX),DEFINITELY NOT,"NOT YET RESOLVED, BUT IMPROVING",,,,,,,Y,2002,,2," ",
NIDA-CTN-0001,AE,01_012272,2002,2,ACTIVE,STUDY DAY 2,2,1959,DIARRHEA,DIARRHOEA,GASTROINTESTINAL DISORDERS,MODERATE,N,NONE,THERAPY PHARMACOLOGY (OTC OR RX),DEFINITELY NOT,"NOT YET RESOLVED, NO CHANGE",,,,,,,Y,2002,,2," ",
NIDA-CTN-0001,AE,01_012272,2002,3,ACTIVE,STUDY DAY 3,3,1960,DIARRHEA,DIARRHOEA,GASTROINTESTINAL DISORDERS,MODERATE,N,NONE,NONE,DEFINITELY NOT,"RESOLVED, NO SEQUELAE",,,,,,,,2002,2002,2,2,
NIDA-CTN-0001,AE,01_012272,2002,2,ACTIVE,STUDY DAY 2,2,1961,INSOMNIA,INSOMNIA,PSYCHIATRIC DISORDERS,MODERATE,N,NONE,THERAPY PHARMACOLOGY (OTC OR RX),DEFINITELY NOT,"NOT YET RESOLVED, NO CHANGE",,,,,,,Y,2002,,1," ",
NIDA-CTN-0001,AE,01_012272,2002,3,ACTIVE,STUDY DAY 3,3,1962,INSOMNIA,INSOMNIA,PSYCHIATRIC DISORDERS,MODERATE,N,NONE,THERAPY PHARMACOLOGY (OTC OR RX),DEFINITELY NOT,"NOT YET RESOLVED, WORSENING",,,,,,,Y,2002,,1," ",
NIDA-CTN-0001,AE,01_012272,2002,2,ACTIVE,STUDY DAY 2,2,1963,NAUSEA,NAUSEA,GASTROINTESTINAL DISORDERS,MODERATE,N,NONE,THERAPY PHARMACOLOGY (OTC OR RX),DEFINITELY NOT,"RESOLVED, NO SEQUELAE",,,,,,,Y,2002,2002,2,2,
NIDA-CTN-0001,AE,01_012272,2002,2,ACTIVE,STUDY DAY 2,2,1964,STOMACH CRAMPS,ABDOMINAL PAIN UPPER,GASTROINTESTINAL DISORDERS,MODERATE,N,NONE,NONE,DEFINITELY NOT,"NOT YET RESOLVED, BUT IMPROVING",,,,,,,,2002,,2," ",
NIDA-CTN-0001,AE,01_012272,2002,3,ACTIVE,STUDY DAY 3,3,1965,STOMACH CRAMPS,ABDOMINAL PAIN UPPER,GASTROINTESTINAL DISORDERS,MODERATE,N,NONE,NONE,DEFINITELY NOT,"RESOLVED, NO SEQUELAE",,,,,,,,2002,2002,2,2,
NIDA-CTN-0001,AE,01_012272,2002,2,ACTIVE,STUDY DAY 2,2,1966,VOMITING,VOMITING,GASTROINTESTINAL DISORDERS,MILD,N,NONE,NONE,DEFINITELY NOT,"RESOLVED, NO SEQUELAE",,,,,,,,2002,2002,2,2,
NIDA-CTN-0001,AE,01_013066,2001,2,ACTIVE,STUDY DAY 2,2,1145,ANXIETY,ANXIETY NEC,PSYCHIATRIC DISORDERS,SEVERE,N,NONE,THERAPY PHARMACOLOGY (OTC OR RX),DEFINITELY NOT,"RESOLVED, NO SEQUELAE",,,,,,,Y,2001,2001,1,1,
NIDA-CTN-0001,AE,01_013066,2001,4,ACTIVE,STUDY DAY 4,4,1146,ANXIETY,ANXIETY NEC,PSYCHIATRIC DISORDERS,MODERATE,N,NONE,THERAPY PHARMACOLOGY (OTC OR RX),REMOTELY,"RESOLVED, NO SEQUELAE",,,,,,,Y,2001,2001,3,6,
NIDA-CTN-0001,AE,01_013066,2001,10,ACTIVE,STUDY DAY 10,10,1147,ANXIETY,ANXIETY NEC,PSYCHIATRIC DISORDERS,SEVERE,N,NONE,NONE,REMOTELY,"RESOLVED, NO SEQUELAE",,,,,,,,2001,2001,7,9,
NIDA-CTN-0001,AE,01_013066,2001,12,ACTIVE,STUDY DAY 12,12,1148,ANXIETY,ANXIETY NEC,PSYCHIATRIC DISORDERS,MODERATE,N,NONE,NONE,REMOTELY,"RESOLVED, NO SEQUELAE",,,,,,,,2001,2001,11,11,
NIDA-CTN-0001,AE,01_013066,2002,30,FOLLOW-UP 1,FOLLOW-UP 1,15,1149,BACK ACHE,BACK PAIN,MUSCULOSKELETAL AND CONNECTIVE TISSUE DISORDERS,SEVERE,N,NONE,THERAPY PHARMACOLOGY (OTC OR RX),DEFINITELY NOT,"RESOLVED, NO SEQUELAE",,,,,,,Y,2002,2002,27,30,
NIDA-CTN-0001,AE,01_013066,2001,1,ACTIVE,STUDY DAY 1,1,1150,BACK PAIN,BACK PAIN,MUSCULOSKELETAL AND CONNECTIVE TISSUE DISORDERS,SEVERE,N,NONE,THERAPY PHARMACOLOGY (OTC OR RX),DEFINITELY NOT,"RESOLVED, NO SEQUELAE",,,,,,,Y,2001,2001,-3,1,
NIDA-CTN-0001,AE,01_013066,2001,1,ACTIVE,STUDY DAY 1,1,1151,CONSTIPATION,CONSTIPATION,GASTROINTESTINAL DISORDERS,SEVERE,N,NONE,NONE,DEFINITELY NOT,"NOT YET RESOLVED, NO CHANGE",,,,,,,Y,2001,2001,-1,14,
NIDA-CTN-0001,AE,01_013066,2002,30,FOLLOW-UP 1,FOLLOW-UP 1,15,1152,CONSTIPATION,CONSTIPATION,GASTROINTESTINAL DISORDERS,SEVERE,N,NONE,NONE,DEFINITELY NOT,"RESOLVED, NO SEQUELAE",,,,,,,Y,2001,2001,14,15,
NIDA-CTN-0001,AE,01_013066,2001,10,ACTIVE,STUDY DAY 10,10,1153,FINGER LACERATION,LACERATION,"INJURY, POISONING AND PROCEDURAL COMPLICATIONS",MILD,N,NONE,NONE,DEFINITELY NOT,"RESOLVED, NO SEQUELAE",,,,,,,,2001,2001,9,13,
NIDA-CTN-0001,AE,01_013066,2001,1,ACTIVE,STUDY DAY 1,1,1154,HEADACHE,HEADACHE NOS,NERVOUS SYSTEM DISORDERS,MILD,N,NONE,THERAPY PHARMACOLOGY (OTC OR RX),DEFINITELY NOT,"RESOLVED, NO SEQUELAE",,,,,,,Y,2001,2001,-2,2,
NIDA-CTN-0001,AE,01_013066,2001,1,ACTIVE,STUDY DAY 1,1,1155,INSOMNIA,INSOMNIA,PSYCHIATRIC DISORDERS,SEVERE,N,NONE,THERAPY PHARMACOLOGY (OTC OR RX),DEFINITELY NOT,"RESOLVED, NO SEQUELAE",,,,,,,Y,2001,2001,-3,3,
NIDA-CTN-0001,AE,01_013066,2001,12,ACTIVE,STUDY DAY 12,12,1156,INSOMNIA,INSOMNIA,PSYCHIATRIC DISORDERS,SEVERE,N,NONE,NONE,REMOTELY,"RESOLVED, NO SEQUELAE",,,,,,,,2001,2001,11,13,
NIDA-CTN-0001,AE,01_013066,2002,30,FOLLOW-UP 1,FOLLOW-UP 1,15,1157,INSOMNIA,INSOMNIA,PSYCHIATRIC DISORDERS,SEVERE,N,NONE,THERAPY PHARMACOLOGY (OTC OR RX),DEFINITELY NOT,"NOT YET RESOLVED, NO CHANGE",,,,,,,Y,2001,2002,15,30,
NIDA-CTN-0001,AE,01_013066,2001,1,ACTIVE,STUDY DAY 1,1,1158,JOINT PAIN,ARTHRALGIA,MUSCULOSKELETAL AND CONNECTIVE TISSUE DISORDERS,SEVERE,N,NONE,THERAPY PHARMACOLOGY (OTC OR RX),DEFINITELY NOT,"RESOLVED, NO SEQUELAE",,,,,,,Y,2001,2001,-3,1,
NIDA-CTN-0001,AE,01_013066,2001,7,ACTIVE,STUDY DAY 7,7,1159,KNEE PAIN,ARTHRALGIA,MUSCULOSKELETAL AND CONNECTIVE TISSUE DISORDERS,SEVERE,N,NONE,NONE,UNKNOWN,"RESOLVED, NO SEQUELAE",,,,,,,,2001,2001,7,9,
NIDA-CTN-0001,AE,01_013066,2001,12,ACTIVE,STUDY DAY 12,12,1160,KNEE PAIN,ARTHRALGIA,MUSCULOSKELETAL AND CONNECTIVE TISSUE DISORDERS,MILD,N,NONE,NONE,DEFINITELY NOT,"RESOLVED, NO SEQUELAE",,,,,,,,2001,2001,11,11,
NIDA-CTN-0001,AE,01_013066,2001,12,ACTIVE,STUDY DAY 12,12,1161,LEFT HAND NUMBNESS,HYPOAESTHESIA,NERVOUS SYSTEM DISORDERS,MODERATE,N,NONE,NONE,DEFINITELY NOT,"RESOLVED, NO SEQUELAE",,,,,,,,2001,2001,12,12,
NIDA-CTN-0001,AE,01_013066,2001,1,ACTIVE,STUDY DAY 1,1,1162,MUSCLE CRAMPS,MUSCLE CRAMPS,MUSCULOSKELETAL AND CONNECTIVE TISSUE DISORDERS,MODERATE,N,NONE,THERAPY PHARMACOLOGY (OTC OR RX),DEFINITELY NOT,"RESOLVED, NO SEQUELAE",,,,,,,Y,2001,2001,-3,1,
NIDA-CTN-0001,AE,01_013066,2001,2,ACTIVE,STUDY DAY 2,2,1163,NAUSEA,NAUSEA,GASTROINTESTINAL DISORDERS,MODERATE,N,NONE,NONE,POSSIBLY,"RESOLVED, NO SEQUELAE",,,,,,,,2001,2001,2,3,
NIDA-CTN-0001,AE,01_013066,2001,5,ACTIVE,STUDY DAY 5,5,1164,NAUSEA,NAUSEA,GASTROINTESTINAL DISORDERS,SEVERE,N,NONE,NONE,POSSIBLY,"RESOLVED, NO SEQUELAE",,,,,,,,2001,2001,4,5,
NIDA-CTN-0001,AE,01_013066,2001,7,ACTIVE,STUDY DAY 7,7,1165,NAUSEA,NAUSEA,GASTROINTESTINAL DISORDERS,MODERATE,N,NONE,NONE,REMOTELY,"RESOLVED, NO SEQUELAE",,,,,,,,2001,2001,6,6,
NIDA-CTN-0001,AE,01_013066,2001,1,ACTIVE,STUDY DAY 1,1,1166,NIGHT SWEATS,NIGHT SWEATS,SKIN AND SUBCUTANEOUS TISSUE DISORDERS,SEVERE,N,NONE,NONE,DEFINITELY NOT,"RESOLVED, NO SEQUELAE",,,,,,,,2001,2001,-3,1,
NIDA-CTN-0001,AE,01_013066,2001,4,ACTIVE,STUDY DAY 4,4,1167,NIGHTSWEATS,NIGHT SWEATS,SKIN AND SUBCUTANEOUS TISSUE DISORDERS,MODERATE,N,NONE,NONE,DEFINITELY NOT,"RESOLVED, NO SEQUELAE",,,,,,,Y,2001,2001,4,4,
NIDA-CTN-0001,AE,01_013066,2001,8,ACTIVE,STUDY DAY 8,8,1168,RIGHT HAND NUMBNESS,HYPOAESTHESIA,NERVOUS SYSTEM DISORDERS,MODERATE,N,NONE,NONE,UNKNOWN,"RESOLVED, NO SEQUELAE",,,,,,,Y,2001,2001,7,7,
NIDA-CTN-0001,AE,01_013066,2001,1,ACTIVE,STUDY DAY 1,1,1169,STOMACH CRAMPS,ABDOMINAL PAIN UPPER,GASTROINTESTINAL DISORDERS,SEVERE,N,NONE,THERAPY PHARMACOLOGY (OTC OR RX),DEFINITELY NOT,"RESOLVED, NO SEQUELAE",,,,,,,Y,2001,2001,-3,1,
NIDA-CTN-0001,AE,01_013066,2001,12,ACTIVE,STUDY DAY 12,12,1170,STOMACH CRAMPS,ABDOMINAL PAIN UPPER,GASTROINTESTINAL DISORDERS,MODERATE,N,NONE,NONE,DEFINITELY NOT,"RESOLVED, NO SEQUELAE",,,,,,,,2001,2001,11,11,
NIDA-CTN-0001,AE,01_013066,2001,8,ACTIVE,STUDY DAY 8,8,1171,TEARFULNESS,TEARFULNESS,PSYCHIATRIC DISORDERS,SEVERE,N,NONE,THERAPY NON-PHARMACOLOGY,REMOTELY,"RESOLVED, NO SEQUELAE",,,,,,,Y,2001,2001,7,7,
NIDA-CTN-0001,AE,01_013066,2001,3,ACTIVE,STUDY DAY 3,3,1172,VOMITING,VOMITING NOS,GASTROINTESTINAL DISORDERS,SEVERE,N,NONE,NONE,REMOTELY,"RESOLVED, NO SEQUELAE",,,,,,,,2001,2001,2,2,
NIDA-CTN-0001,AE,01_013066,2001,5,ACTIVE,STUDY DAY 5,5,1173,VOMITING,VOMITING NOS,GASTROINTESTINAL DISORDERS,MODERATE,N,NONE,NONE,REMOTELY,"RESOLVED, NO SEQUELAE",,,,,,,,2001,2001,4,4,
NIDA-CTN-0001,AE,01_013066,2001,7,ACTIVE,STUDY DAY 7,7,1174,VOMITING,VOMITING NOS,GASTROINTESTINAL DISORDERS,MODERATE,N,NONE,NONE,REMOTELY,"RESOLVED, NO SEQUELAE",,,,,,,,2001,2001,6,6,
NIDA-CTN-0001,AE,01_013173,2001,2,ACTIVE,STUDY DAY 2,2,2188,ACHY ALL OVER,PAIN,GENERAL DISORDERS AND ADMINISTRATION SITE CONDITIONS,MILD,N,NONE,THERAPY PHARMACOLOGY (OTC OR RX),DEFINITELY NOT,"RESOLVED, NO SEQUELAE",,,,,,,Y,2001,2001,2,4,
NIDA-CTN-0001,AE,01_013173,2001,2,ACTIVE,STUDY DAY 2,2,2189,BACK ACHE,BACK PAIN,MUSCULOSKELETAL AND CONNECTIVE TISSUE DISORDERS,MODERATE,N,NONE,THERAPY PHARMACOLOGY (OTC OR RX),DEFINITELY NOT,"NOT YET RESOLVED, NO CHANGE",,,,,,,Y,2001,2001,2,5,
NIDA-CTN-0001,AE,01_013173,2001,11,ACTIVE,STUDY DAY 11,11,2190,BACK SPASMS,BACK PAIN,MUSCULOSKELETAL AND CONNECTIVE TISSUE DISORDERS,MODERATE,N,NONE,NONE,DEFINITELY NOT,"RESOLVED, NO SEQUELAE",,,,,,,,2001,2001,10,13,
NIDA-CTN-0001,AE,01_013173,2001,14,ACTIVE,STUDY DAY 14,14,2191,CHEST CONGESTION,RESPIRATORY TRACT CONGESTION,"RESPIRATORY, THORACIC AND MEDIASTINAL DISORDERS",MILD,N,NONE,THERAPY PHARMACOLOGY (OTC OR RX),DEFINITELY NOT,UNKNOWN,,,,,,,Y,2001,,14," ",
NIDA-CTN-0001,AE,01_013173,2001,14,ACTIVE,STUDY DAY 14,14,2192,COUGH,COUGH,"RESPIRATORY, THORACIC AND MEDIASTINAL DISORDERS",MILD,N,NONE,THERAPY PHARMACOLOGY (OTC OR RX),DEFINITELY NOT,UNKNOWN,,,,,,,Y,2001,,14," ",
NIDA-CTN-0001,AE,01_013173,2001,4,ACTIVE,STUDY DAY 4,4,2193,DIARRHEA,DIARRHOEA,GASTROINTESTINAL DISORDERS,MILD,N,NONE,THERAPY PHARMACOLOGY (OTC OR RX),DEFINITELY NOT,"RESOLVED, NO SEQUELAE",,,,,,,Y,2001,2001,3,3,
NIDA-CTN-0001,AE,01_013173,2001,5,ACTIVE,STUDY DAY 5,5,2194,DIARRHEA,DIARRHOEA,GASTROINTESTINAL DISORDERS,MILD,N,NONE,THERAPY PHARMACOLOGY (OTC OR RX),DEFINITELY NOT,"RESOLVED, NO SEQUELAE",,,,,,,Y,2001,2001,4,4,
NIDA-CTN-0001,AE,01_013173,2001,13,ACTIVE,STUDY DAY 13,13,2195,DROWSY,SOMNOLENCE,NERVOUS SYSTEM DISORDERS,MODERATE,N,NONE,NONE,POSSIBLY,UNKNOWN,,,,,,,Y,2001,,13," ",
NIDA-CTN-0001,AE,01_013173,2002,29,FOLLOW-UP 1,FOLLOW-UP 1,15,2196,EAR INFECTION,EAR INFECTION,INFECTIONS AND INFESTATIONS,MODERATE,N,NONE,,DEFINITELY NOT,UNKNOWN,,,,,,,Y,2001,,19," ",
NIDA-CTN-0001,AE,01_013173,2001,9,ACTIVE,STUDY DAY 9,9,2197,EYE PAIN,EYE PAIN,EYE DISORDERS,SEVERE,N,NONE,THERAPY PHARMACOLOGY (OTC OR RX) THERAPY NON-PHARMACOLOGY,DEFINITELY NOT,"RESOLVED, NO SEQUELAE",,,,,,,Y,2001,2001,9,9,
NIDA-CTN-0001,AE,01_013173,2002,29,FOLLOW-UP 1,FOLLOW-UP 1,15,2198,FLU,INFLUENZA,INFECTIONS AND INFESTATIONS,MODERATE,N,NONE,THERAPY PHARMACOLOGY (OTC OR RX),DEFINITELY NOT,UNKNOWN,,,,,,,Y,2001,,14," ",
NIDA-CTN-0001,AE,01_013173,2002,29,FOLLOW-UP 1,FOLLOW-UP 1,15,2199,HEAD CONGESTION,SINUS CONGESTION,"RESPIRATORY, THORACIC AND MEDIASTINAL DISORDERS",MODERATE,N,NONE,THERAPY PHARMACOLOGY (OTC OR RX),DEFINITELY NOT,UNKNOWN,,,,,,,Y,2001,,14," ",
NIDA-CTN-0001,AE,01_013173,2001,2,ACTIVE,STUDY DAY 2,2,2200,HEADACHE,HEADACHE,NERVOUS SYSTEM DISORDERS,MILD,N,NONE,NONE,DEFINITELY NOT,"RESOLVED, NO SEQUELAE",,,,,,,Y,2001,2001,2,2,
NIDA-CTN-0001,AE,01_013173,2001,6,ACTIVE,STUDY DAY 6,6,2201,HEADACHE,HEADACHE,NERVOUS SYSTEM DISORDERS,SEVERE,N,NONE,THERAPY PHARMACOLOGY (OTC OR RX),DEFINITELY NOT,"RESOLVED, NO SEQUELAE",,,,,,,Y,2001,2001,5,5,
NIDA-CTN-0001,AE,01_013173,2001,7,ACTIVE,STUDY DAY 7,7,2202,HEADACHE,HEADACHE,NERVOUS SYSTEM DISORDERS,MODERATE,N,NONE,THERAPY PHARMACOLOGY (OTC OR RX),DEFINITELY NOT,"RESOLVED, NO SEQUELAE",,,,,,,Y,2001,2001,6,7,
NIDA-CTN-0001,AE,01_013173,2001,8,ACTIVE,STUDY DAY 8,8,2203,HEADACHE,HEADACHE,NERVOUS SYSTEM DISORDERS,MILD,N,NONE,NONE,DEFINITELY NOT,"RESOLVED, NO SEQUELAE",,,,,,,,2001,2001,8,8,
NIDA-CTN-0001,AE,01_013173,2001,9,ACTIVE,STUDY DAY 9,9,2204,HURTS TO MOVE HEAD,HEAD DISCOMFORT,NERVOUS SYSTEM DISORDERS,SEVERE,N,NONE,THERAPY PHARMACOLOGY (OTC OR RX) THERAPY NON-PHARMACOLOGY,DEFINITELY NOT,"RESOLVED, NO SEQUELAE",,,,,,,Y,2001,2001,9,9,
NIDA-CTN-0001,AE,01_013173,2001,2,ACTIVE,STUDY DAY 2,2,2205,HYPERTENSION,HYPERTENSION,VASCULAR DISORDERS,MODERATE,N,NONE,THERAPY PHARMACOLOGY (OTC OR RX),DEFINITELY NOT,"NOT YET RESOLVED, BUT IMPROVING",,,,,,,Y,2001,2001,3,6,
NIDA-CTN-0001,AE,01_013173,2001,6,ACTIVE,STUDY DAY 6,6,2206,HYPERTENSION,HYPERTENSION,VASCULAR DISORDERS,MILD,N,NONE,NONE,DEFINITELY NOT,UNKNOWN,,,,,,,Y,2001,,6," ",
NIDA-CTN-0001,AE,01_013173,2001,3,ACTIVE,STUDY DAY 3,3,2207,JITTERY,FEELING JITTERY,GENERAL DISORDERS AND ADMINISTRATION SITE CONDITIONS,MODERATE,N,NONE,NONE,DEFINITELY NOT,"RESOLVED, NO SEQUELAE",,,,,,,,2001,2001,3,3,
NIDA-CTN-0001,AE,01_013173,2001,9,ACTIVE,STUDY DAY 9,9,2208,MIGRAINE HEADACHE,MIGRAINE,NERVOUS SYSTEM DISORDERS,SEVERE,N,NONE,THERAPY PHARMACOLOGY (OTC OR RX) THERAPY NON-PHARMACOLOGY,DEFINITELY NOT,"RESOLVED, NO SEQUELAE",,,,,,,Y,2001,2001,9,9,
NIDA-CTN-0001,AE,01_013173,2002,29,FOLLOW-UP 1,FOLLOW-UP 1,15,2209,NASAL CONGESTION,NASAL CONGESTION,"RESPIRATORY, THORACIC AND MEDIASTINAL DISORDERS",MODERATE,N,NONE,THERAPY PHARMACOLOGY (OTC OR RX),DEFINITELY NOT,UNKNOWN,,,,,,,Y,2001,,14," ",
NIDA-CTN-0001,AE,01_013173,2001,2,ACTIVE,STUDY DAY 2,2,2210,NAUSEA,NAUSEA,GASTROINTESTINAL DISORDERS,MODERATE,N,NONE,THERAPY PHARMACOLOGY (OTC OR RX),POSSIBLY,"NOT YET RESOLVED, WORSENING",,,,,,,Y,2001,2001,2,3,
NIDA-CTN-0001,AE,01_013173,2001,3,ACTIVE,STUDY DAY 3,3,2211,NAUSEA,NAUSEA,GASTROINTESTINAL DISORDERS,SEVERE,N,NONE,THERAPY PHARMACOLOGY (OTC OR RX),DEFINITELY NOT,"NOT YET RESOLVED, BUT IMPROVING",,,,,,,Y,2001,2001,3,3,
NIDA-CTN-0001,AE,01_013173,2001,4,ACTIVE,STUDY DAY 4,4,2212,NAUSEA,NAUSEA,GASTROINTESTINAL DISORDERS,MILD,N,NONE,THERAPY PHARMACOLOGY (OTC OR RX),DEFINITELY NOT,"RESOLVED, NO SEQUELAE",,,,,,,Y,2001,2001,3,4,
NIDA-CTN-0001,AE,01_013173,2001,9,ACTIVE,STUDY DAY 9,9,2213,NECK PAIN,NECK PAIN,MUSCULOSKELETAL AND CONNECTIVE TISSUE DISORDERS,SEVERE,N,NONE,THERAPY PHARMACOLOGY (OTC OR RX) THERAPY NON-PHARMACOLOGY,DEFINITELY NOT,"RESOLVED, NO SEQUELAE",,,,,,,Y,2001,2001,9,9,
NIDA-CTN-0001,AE,01_013173,2001,3,ACTIVE,STUDY DAY 3,3,2214,PAINFUL FINGER JOINTS,ARTHRALGIA,MUSCULOSKELETAL AND CONNECTIVE TISSUE DISORDERS,MODERATE,N,NONE,NONE,DEFINITELY NOT,"NOT YET RESOLVED, BUT IMPROVING",,,,,,,Y,2001,2001,3,3,
NIDA-CTN-0001,AE,01_013173,2001,5,ACTIVE,STUDY DAY 5,5,2215,PAINFUL FINGER JOINTS,ARTHRALGIA,MUSCULOSKELETAL AND CONNECTIVE TISSUE DISORDERS,MILD,N,NONE,NONE,DEFINITELY NOT,"RESOLVED, NO SEQUELAE",,,,,,,Y,2001,2001,5,8,
NIDA-CTN-0001,AE,01_013173,2001,9,ACTIVE,STUDY DAY 9,9,2216,PHOTOPHOBIA,PHOTOPHOBIA,EYE DISORDERS,SEVERE,N,NONE,THERAPY PHARMACOLOGY (OTC OR RX) THERAPY NON-PHARMACOLOGY,DEFINITELY NOT,"RESOLVED, NO SEQUELAE",,,,,,,Y,2001,2001,9,9,
NIDA-CTN-0001,AE,01_013173,2001,2,ACTIVE,STUDY DAY 2,2,2217,RESTLESSNESS,RESTLESSNESS,PSYCHIATRIC DISORDERS,MODERATE,N,NONE,THERAPY PHARMACOLOGY (OTC OR RX),DEFINITELY NOT,UNKNOWN,,,,,,,Y,2001,,2," ",
NIDA-CTN-0001,AE,01_013173,2001,3,ACTIVE,STUDY DAY 3,3,2218,RUNNY NOSE,RHINORRHOEA,"RESPIRATORY, THORACIC AND MEDIASTINAL DISORDERS",MILD,N,NONE,NONE,DEFINITELY NOT,"RESOLVED, NO SEQUELAE",,,,,,,,2001,2001,3,4,
NIDA-CTN-0001,AE,01_013173,2001,14,ACTIVE,STUDY DAY 14,14,2219,SCRATCHY THROAT,THROAT IRRITATION,"RESPIRATORY, THORACIC AND MEDIASTINAL DISORDERS",MILD,N,NONE,THERAPY PHARMACOLOGY (OTC OR RX),DEFINITELY NOT,UNKNOWN,,,,,,,Y,2001,,14," ",
NIDA-CTN-0001,AE,01_013173,2002,29,FOLLOW-UP 1,FOLLOW-UP 1,15,2220,SCRATCHY THROAT,THROAT IRRITATION,"RESPIRATORY, THORACIC AND MEDIASTINAL DISORDERS",MODERATE,N,NONE,THERAPY PHARMACOLOGY (OTC OR RX),DEFINITELY NOT,UNKNOWN,,,,,,,Y,2001,,14," ",
NIDA-CTN-0001,AE,01_013173,2001,2,ACTIVE,STUDY DAY 2,2,2221,SLEEPLESSNESS,INSOMNIA,PSYCHIATRIC DISORDERS,SEVERE,N,NONE,NONE,DEFINITELY NOT,"NOT YET RESOLVED, BUT IMPROVING",,,,,,,Y,2001,2001,2,3,
NIDA-CTN-0001,AE,01_013173,2001,3,ACTIVE,STUDY DAY 3,3,2222,SLEEPLESSNESS,INSOMNIA,PSYCHIATRIC DISORDERS,MODERATE,N,NONE,THERAPY PHARMACOLOGY (OTC OR RX),DEFINITELY NOT,"RESOLVED, NO SEQUELAE",,,,,,,Y,2001,2001,3,6,
NIDA-CTN-0001,AE,01_013173,2001,11,ACTIVE,STUDY DAY 11,11,2223,SLEEPY DROWSY,SOMNOLENCE,NERVOUS SYSTEM DISORDERS,MILD,N,NONE,NONE,PROBABLY,"RESOLVED, NO SEQUELAE",,,,,,,,2001,2001,10,12,
NIDA-CTN-0001,AE,01_013173,2001,3,ACTIVE,STUDY DAY 3,3,2224,SNEEZING,SNEEZING,"RESPIRATORY, THORACIC AND MEDIASTINAL DISORDERS",MODERATE,N,NONE,NONE,DEFINITELY NOT,"RESOLVED, NO SEQUELAE",,,,,,,,2001,2001,3,4,
NIDA-CTN-0001,AE,01_013173,2001,6,ACTIVE,STUDY DAY 6,6,2225,STOMACH CRAMPS,ABDOMINAL PAIN UPPER,GASTROINTESTINAL DISORDERS,MILD,N,NONE,NONE,DEFINITELY NOT,"RESOLVED, NO SEQUELAE",,,,,,,,2001,2001,5,5,
NIDA-CTN-0001,AE,01_013173,2001,13,ACTIVE,STUDY DAY 13,13,2226,SWOLLEN JAW,JAW INFLAMMATION,MUSCULOSKELETAL AND CONNECTIVE TISSUE DISORDERS,MODERATE,N,NONE,NONE THERAPY PHARMACOLOGY (OTC OR RX),DEFINITELY NOT,UNKNOWN,,,,,,,Y,2001,,13," ",
NIDA-CTN-0001,AE,01_013173,2001,13,ACTIVE,STUDY DAY 13,13,2227,TOOTH PAIN,TOOTHACHE,GASTROINTESTINAL DISORDERS,SEVERE,N,NONE,THERAPY PHARMACOLOGY (OTC OR RX) THERAPY NON-PHARMACOLOGY,DEFINITELY NOT,UNKNOWN,,,,,,,Y,2001,,13," ",
NIDA-CTN-0001,AE,01_013173,2001,2,ACTIVE,STUDY DAY 2,2,2228,TREMORS,TREMOR,NERVOUS SYSTEM DISORDERS,MILD,N,NONE,NONE,DEFINITELY NOT,"RESOLVED, NO SEQUELAE",,,,,,,,2001,2001,2,3,
NIDA-CTN-0001,AE,01_015991,2001,1,ACTIVE,STUDY DAY 1,1,702,ABDOMINAL CRAMPING,ABDOMINAL PAIN,GASTROINTESTINAL DISORDERS,MILD,N,NONE,NONE,REMOTELY,"RESOLVED, NO SEQUELAE",,,,,,,,2001,2001,1,2,
NIDA-CTN-0001,AE,01_015991,2001,1,ACTIVE,STUDY DAY 1,1,703,CHILLS,RIGORS,GENERAL DISORDERS AND ADMINISTRATION SITE CONDITIONS,MILD,N,NONE,NONE,REMOTELY,"RESOLVED, NO SEQUELAE",,,,,,,,2001,2001,1,2,
NIDA-CTN-0001,AE,01_015991,2001,7,ACTIVE,STUDY DAY 7,7,704,CONSTIPATION,CONSTIPATION,GASTROINTESTINAL DISORDERS,MILD,N,NONE,THERAPY PHARMACOLOGY (OTC OR RX),POSSIBLY,"RESOLVED, NO SEQUELAE",,,,,,,Y,2001,2001,6,7,
NIDA-CTN-0001,AE,01_015991,2001,11,ACTIVE,STUDY DAY 11,11,705,CONSTIPATION,CONSTIPATION,GASTROINTESTINAL DISORDERS,MILD,N,NONE,THERAPY PHARMACOLOGY (OTC OR RX),POSSIBLY,"RESOLVED, NO SEQUELAE",,,,,,,Y,2001,2001,10,14,
NIDA-CTN-0001,AE,01_015991,2001,3,ACTIVE,STUDY DAY 3,3,706,GOOSEFLESH,PILOERECTION,SKIN AND SUBCUTANEOUS TISSUE DISORDERS,MILD,N,NONE,NONE,POSSIBLY,"RESOLVED, NO SEQUELAE",,,,,,,Y,2001,2001,2,3,
NIDA-CTN-0001,AE,01_015991,2001,3,ACTIVE,STUDY DAY 3,3,707,HEADACHE,HEADACHE NOS,NERVOUS SYSTEM DISORDERS,MILD,N,NONE,NONE,POSSIBLY,"RESOLVED, NO SEQUELAE",,,,,,,,2001,2001,2,3,
NIDA-CTN-0001,AE,01_015991,2001,2,ACTIVE,STUDY DAY 2,2,708,INS0MNIA,INSOMNIA,PSYCHIATRIC DISORDERS,MILD,N,NONE,THERAPY PHARMACOLOGY (OTC OR RX),POSSIBLY,"RESOLVED, NO SEQUELAE",,,,,,,Y,2001,2001,1,2,
NIDA-CTN-0001,AE,01_015991,2001,3,ACTIVE,STUDY DAY 3,3,709,INSOMNIA,INSOMNIA,PSYCHIATRIC DISORDERS,MILD,N,NONE,THERAPY PHARMACOLOGY (OTC OR RX),POSSIBLY,"RESOLVED, NO SEQUELAE",,,,,,,Y,2001,2001,2,3,
NIDA-CTN-0001,AE,01_015991,2001,5,ACTIVE,STUDY DAY 5,5,710,INSOMNIA,INSOMNIA,PSYCHIATRIC DISORDERS,MILD,N,NONE,THERAPY PHARMACOLOGY (OTC OR RX),POSSIBLY,"RESOLVED, NO SEQUELAE",,,,,,,Y,2001,2001,4,7,
NIDA-CTN-0001,AE,01_015991,2001,10,ACTIVE,STUDY DAY 10,10,711,INSOMNIA,INSOMNIA,PSYCHIATRIC DISORDERS,MILD,N,NONE,THERAPY PHARMACOLOGY (OTC OR RX),POSSIBLY,"RESOLVED, NO SEQUELAE",,,,,,,Y,2001,2001,9,13,
NIDA-CTN-0001,AE,01_015991,2001,1,ACTIVE,STUDY DAY 1,1,712,MUSCLE PAIN,MYALGIA,MUSCULOSKELETAL AND CONNECTIVE TISSUE DISORDERS,MILD,N,NONE,NONE,REMOTELY,"RESOLVED, NO SEQUELAE",,,,,,,,2001,2001,1,2,
NIDA-CTN-0001,AE,01_015991,2001,2,ACTIVE,STUDY DAY 2,2,713,RESTLESSNESS,RESTLESSNESS,PSYCHIATRIC DISORDERS,MILD,N,NONE,THERAPY PHARMACOLOGY (OTC OR RX),POSSIBLY,"RESOLVED, NO SEQUELAE",,,,,,,Y,2001,2001,2,2,
NIDA-CTN-0001,AE,01_015991,2001,3,ACTIVE,STUDY DAY 3,3,714,RUNNY NOSE,RHINORRHOEA,"RESPIRATORY, THORACIC AND MEDIASTINAL DISORDERS",MILD,N,NONE,NONE,POSSIBLY,"RESOLVED, NO SEQUELAE",,,,,,,Y,2001,2001,2,3,
NIDA-CTN-0001,AE,01_018076,2001,2,ACTIVE,STUDY DAY 2,2,598,BONE PAIN,BONE PAIN,MUSCULOSKELETAL AND CONNECTIVE TISSUE DISORDERS,SEVERE,N,NONE,THERAPY PHARMACOLOGY (OTC OR RX),PROBABLY,"RESOLVED, NO SEQUELAE",,,,,,,Y,2001,2001,1,2,
NIDA-CTN-0001,AE,01_018415,2001,2,ACTIVE,STUDY DAY 2,2,1646,BODY ACHE,PAIN,GENERAL DISORDERS AND ADMINISTRATION SITE CONDITIONS,MILD,N,NONE,NONE,UNKNOWN,"NOT YET RESOLVED, BUT IMPROVING",,,,,,,Y,2001,,2," ",
NIDA-CTN-0001,AE,01_018415,2001,3,ACTIVE,STUDY DAY 3,3,1647,BODY ACHE,PAIN,GENERAL DISORDERS AND ADMINISTRATION SITE CONDITIONS,MILD,N,NONE,NONE,UNKNOWN,"RESOLVED, NO SEQUELAE",,,,,,,Y,2001,2001,2,3,
NIDA-CTN-0001,AE,01_018415,2001,2,ACTIVE,STUDY DAY 2,2,1648,CHILLS,RIGORS,GENERAL DISORDERS AND ADMINISTRATION SITE CONDITIONS,MILD,N,NONE,NONE,UNKNOWN,"RESOLVED, NO SEQUELAE",,,,,,,,2001,2001,2,2,
NIDA-CTN-0001,AE,01_018415,2001,9,ACTIVE,STUDY DAY 9,9,1649,CONSTIPATION,CONSTIPATION,GASTROINTESTINAL DISORDERS,MODERATE,N,NONE,THERAPY PHARMACOLOGY (OTC OR RX),POSSIBLY,"NOT YET RESOLVED, NO CHANGE",,,,,,,Y,2001,,9," ",
NIDA-CTN-0001,AE,01_018415,2001,10,ACTIVE,STUDY DAY 10,10,1650,CONSTIPATION,CONSTIPATION,GASTROINTESTINAL DISORDERS,MODERATE,N,NONE,THERAPY PHARMACOLOGY (OTC OR RX),POSSIBLY,"NOT YET RESOLVED, NO CHANGE",,,,,,,Y,2001,,9," ",
NIDA-CTN-0001,AE,01_018415,2001,11,ACTIVE,STUDY DAY 11,11,1651,CONSTIPATION,CONSTIPATION,GASTROINTESTINAL DISORDERS,MODERATE,N,NONE,THERAPY PHARMACOLOGY (OTC OR RX),POSSIBLY,"NOT YET RESOLVED, NO CHANGE",,,,,,,Y,2001,,9," ",
NIDA-CTN-0001,AE,01_018415,2001,12,ACTIVE,STUDY DAY 12,12,1652,CONSTIPATION,CONSTIPATION,GASTROINTESTINAL DISORDERS,MODERATE,N,NONE,THERAPY PHARMACOLOGY (OTC OR RX),POSSIBLY,"RESOLVED, NO SEQUELAE",,,,,,,Y,2001,2001,9,12,
NIDA-CTN-0001,AE,01_018415,2001,9,ACTIVE,STUDY DAY 9,9,1653,DROWSINESS,SOMNOLENCE,NERVOUS SYSTEM DISORDERS,MILD,N,NONE,NONE,POSSIBLY,"NOT YET RESOLVED, NO CHANGE",,,,,,,Y,2001,,9," ",
NIDA-CTN-0001,AE,01_018415,2001,10,ACTIVE,STUDY DAY 10,10,1654,DROWSINESS,SOMNOLENCE,NERVOUS SYSTEM DISORDERS,MILD,N,NONE,NONE,POSSIBLY,"NOT YET RESOLVED, NO CHANGE",,,,,,,Y,2001,,9," ",
NIDA-CTN-0001,AE,01_018415,2001,11,ACTIVE,STUDY DAY 11,11,1655,DROWSINESS,SOMNOLENCE,NERVOUS SYSTEM DISORDERS,MILD,N,NONE,NONE,POSSIBLY,"NOT YET RESOLVED, WORSENING",,,,,,,Y,2001,,9," ",
NIDA-CTN-0001,AE,01_018415,2001,12,ACTIVE,STUDY DAY 12,12,1656,DROWSINESS,SOMNOLENCE,NERVOUS SYSTEM DISORDERS,MILD,N,NONE,NONE,POSSIBLY,"NOT YET RESOLVED, BUT IMPROVING",,,,,,,Y,2001,,9," ",
NIDA-CTN-0001,AE,01_018415,2001,13,ACTIVE,STUDY DAY 13,13,1657,DROWSINESS,SOMNOLENCE,NERVOUS SYSTEM DISORDERS,MILD,N,NONE,NONE,POSSIBLY,"NOT YET RESOLVED, BUT IMPROVING",,,,,,,,2001,,9," ",
NIDA-CTN-0001,AE,01_018415,2001,14,ACTIVE,STUDY DAY 14,14,1658,DROWSINESS,SOMNOLENCE,NERVOUS SYSTEM DISORDERS,MILD,N,NONE,NONE,POSSIBLY,"NOT YET RESOLVED, BUT IMPROVING",,,,,,,,2001,,9," ",
NIDA-CTN-0001,AE,01_018415,2001,4,ACTIVE,STUDY DAY 4,4,1659,HEADACHE,HEADACHE,NERVOUS SYSTEM DISORDERS,MILD,N,NONE,NONE,POSSIBLY,"RESOLVED, NO SEQUELAE",,,,,,,Y,2001,2001,3,3,
NIDA-CTN-0001,AE,01_018415,2001,5,ACTIVE,STUDY DAY 5,5,1660,HEADACHE,HEADACHE,NERVOUS SYSTEM DISORDERS,MILD,N,NONE,NONE,POSSIBLY,"RESOLVED, NO SEQUELAE",,,,,,,,2001,2001,4,4,
NIDA-CTN-0001,AE,01_018415,2001,2,ACTIVE,STUDY DAY 2,2,1661,INSOMNIA,INSOMNIA,PSYCHIATRIC DISORDERS,MODERATE,N,NONE,THERAPY PHARMACOLOGY (OTC OR RX),UNKNOWN,"NOT YET RESOLVED, NO CHANGE",,,,,,,Y,2001,,2," ",
NIDA-CTN-0001,AE,01_018415,2001,3,ACTIVE,STUDY DAY 3,3,1662,INSOMNIA,INSOMNIA,PSYCHIATRIC DISORDERS,MODERATE,N,NONE,THERAPY PHARMACOLOGY (OTC OR RX),UNKNOWN,"NOT YET RESOLVED, BUT IMPROVING",,,,,,,Y,2001,,2," ",
NIDA-CTN-0001,AE,01_018415,2001,4,ACTIVE,STUDY DAY 4,4,1663,INSOMNIA,INSOMNIA,PSYCHIATRIC DISORDERS,MODERATE,N,NONE,THERAPY PHARMACOLOGY (OTC OR RX),REMOTELY,"RESOLVED, NO SEQUELAE",,,,,,,Y,2001,2001,2,3,
NIDA-CTN-0001,AE,01_018415,2001,6,ACTIVE,STUDY DAY 6,6,1664,INSOMNIA,INSOMNIA,PSYCHIATRIC DISORDERS,MILD,N,NONE,NONE,POSSIBLY,"NOT YET RESOLVED, NO CHANGE",,,,,,,,2001,,5," ",
NIDA-CTN-0001,AE,01_018415,2001,7,ACTIVE,STUDY DAY 7,7,1665,INSOMNIA,INSOMNIA,PSYCHIATRIC DISORDERS,MILD,N,NONE,NONE,REMOTELY,"RESOLVED, NO SEQUELAE",,,,,,,,2001,2001,5,6,
NIDA-CTN-0001,AE,01_018415,2001,8,ACTIVE,STUDY DAY 8,8,1666,STOMACH CRAMPS,ABDOMINAL PAIN UPPER,GASTROINTESTINAL DISORDERS,MODERATE,N,NONE,THERAPY PHARMACOLOGY (OTC OR RX),DEFINITELY NOT,"RESOLVED, NO SEQUELAE",,,,,,,Y,2001,2001,7,8,
NIDA-CTN-0001,AE,01_018415,2001,9,ACTIVE,STUDY DAY 9,9,1667,STOMACH CRAMPS,ABDOMINAL PAIN UPPER,GASTROINTESTINAL DISORDERS,MILD,N,NONE,NONE,DEFINITELY NOT,"NOT YET RESOLVED, WORSENING",,,,,,,,2001,,9," ",
NIDA-CTN-0001,AE,01_018415,2001,10,ACTIVE,STUDY DAY 10,10,1668,STOMACH CRAMPS,ABDOMINAL PAIN UPPER,GASTROINTESTINAL DISORDERS,MILD,N,NONE,NONE,DEFINITELY NOT,"RESOLVED, NO SEQUELAE",,,,,,,,2001,2001,9,9,
NIDA-CTN-0001,AE,01_018415,2001,2,ACTIVE,STUDY DAY 2,2,1669,SWEATS,HYPERHIDROSIS,SKIN AND SUBCUTANEOUS TISSUE DISORDERS,MILD,N,NONE,NONE,UNKNOWN,"RESOLVED, NO SEQUELAE",,,,,,,,2001,2001,2,2,
NIDA-CTN-0001,AE,01_018599,2002,1,ACTIVE,STUDY DAY 1,1,815,ABDOMINAL CRAMPS,ABDOMINAL PAIN NOS,GASTROINTESTINAL DISORDERS,MILD,N,NONE,NONE,REMOTELY,"RESOLVED, NO SEQUELAE",,,,,,,,2002,2002,1,2,
NIDA-CTN-0001,AE,01_018599,2002,2,ACTIVE,STUDY DAY 2,2,816,ANXIETY,ANXIETY,PSYCHIATRIC DISORDERS,MILD,N,NONE,THERAPY PHARMACOLOGY (OTC OR RX),POSSIBLY,"RESOLVED, NO SEQUELAE",,,,,,,Y,2002,2002,1,4,
NIDA-CTN-0001,AE,01_018599,2002,3,ACTIVE,STUDY DAY 3,3,817,BONE PAIN,BONE PAIN,MUSCULOSKELETAL AND CONNECTIVE TISSUE DISORDERS,MILD,N,NONE,NONE,POSSIBLY,"RESOLVED, NO SEQUELAE",,,,,,,Y,2002,2002,2,4,
NIDA-CTN-0001,AE,01_018599,2002,122,FOLLOW-UP 2,FOLLOW-UP 2,16,827,BROKEN RIBS,SPINAL FUSION ACQUIRED,MUSCULOSKELETAL AND CONNECTIVE TISSUE DISORDERS,SEVERE,Y,NONE,,DEFINITELY NOT,"OTHER, SPECIFY",,,,,,Y,,2002,2002,109,115,
NIDA-CTN-0001,AE,01_018599,2002,3,ACTIVE,STUDY DAY 3,3,818,DIARRHEA,DIARRHOEA,GASTROINTESTINAL DISORDERS,MILD,N,NONE,THERAPY PHARMACOLOGY (OTC OR RX),POSSIBLY,"RESOLVED, NO SEQUELAE",,,,,,,Y,2002,2002,2,4,
NIDA-CTN-0001,AE,01_018599,2002,3,ACTIVE,STUDY DAY 3,3,819,FIBROMYALGIA PAIN,FIBROMYALGIA,MUSCULOSKELETAL AND CONNECTIVE TISSUE DISORDERS,MILD,N,NONE,NONE,REMOTELY,"RESOLVED, NO SEQUELAE",,,,,,,Y,2002,2002,2,4,
NIDA-CTN-0001,AE,01_018599,2002,2,ACTIVE,STUDY DAY 2,2,820,INSOMNIA,INSOMNIA,PSYCHIATRIC DISORDERS,MILD,N,NONE,THERAPY PHARMACOLOGY (OTC OR RX),POSSIBLY,"RESOLVED, NO SEQUELAE",,,,,,,Y,2002,2002,1,3,
NIDA-CTN-0001,AE,01_018599,2002,2,ACTIVE,STUDY DAY 2,2,821,JOINTPAIN,ARTHRALGIA,MUSCULOSKELETAL AND CONNECTIVE TISSUE DISORDERS,MILD,N,NONE,THERAPY PHARMACOLOGY (OTC OR RX),POSSIBLY,"RESOLVED, NO SEQUELAE",,,,,,,Y,2002,2002,1,3,
NIDA-CTN-0001,AE,01_018599,2002,3,ACTIVE,STUDY DAY 3,3,822,LEG PAIN,PAIN IN LIMB,MUSCULOSKELETAL AND CONNECTIVE TISSUE DISORDERS,MILD,N,NONE,NONE,POSSIBLY,"RESOLVED, NO SEQUELAE",,,,,,,,2002,2002,2,4,
NIDA-CTN-0001,AE,01_018599,2002,3,ACTIVE,STUDY DAY 3,3,823,LOW BP,HYPOTENSION NOS,VASCULAR DISORDERS,MILD,N,NONE,NONE,POSSIBLY,"RESOLVED, NO SEQUELAE",,,,,,,,2002,2002,2,4,
NIDA-CTN-0001,AE,01_018599,2002,122,FOLLOW-UP 2,FOLLOW-UP 2,16,824,MOTOR VEHICLE ACCIDENT,ROAD TRAFFIC ACCIDENT,"INJURY, POISONING AND PROCEDURAL COMPLICATIONS",SEVERE,Y,NONE,HOSPITALIZATION,DEFINITELY NOT,"NOT YET RESOLVED, BUT IMPROVING",,,,Y,,,,2002,2002,109,115,
NIDA-CTN-0001,AE,01_018599,2002,3,ACTIVE,STUDY DAY 3,3,825,MUSCLE ACHES,MYALGIA,MUSCULOSKELETAL AND CONNECTIVE TISSUE DISORDERS,MILD,N,NONE,NONE,POSSIBLY,"RESOLVED, NO SEQUELAE",,,,,,,,2002,2002,2,4,
NIDA-CTN-0001,AE,01_018599,2002,2,ACTIVE,STUDY DAY 2,2,826,NAUSEA,NAUSEA,GASTROINTESTINAL DISORDERS,MILD,N,NONE,THERAPY PHARMACOLOGY (OTC OR RX),POSSIBLY,"RESOLVED, NO SEQUELAE",,,,,,,Y,2002,2002,1,3,
NIDA-CTN-0001,AE,01_018599,2002,1,ACTIVE,STUDY DAY 1,1,828,RUNNY NOSE,RHINORRHOEA,"RESPIRATORY, THORACIC AND MEDIASTINAL DISORDERS",MILD,N,NONE,NONE,REMOTELY,"RESOLVED, NO SEQUELAE",,,,,,,,2002,2002,1,2,
NIDA-CTN-0001,AE,01_018599,2002,1,ACTIVE,STUDY DAY 1,1,829,WATERY EYES,LACRIMATION INCREASED,EYE DISORDERS,MILD,N,NONE,NONE,REMOTELY,"RESOLVED, NO SEQUELAE",,,,,,,,2002,2002,1,2,
NIDA-CTN-0001,AE,01_018599,2002,3,ACTIVE,STUDY DAY 3,3,830,WEAKNESS,WEAKNESS,GENERAL DISORDERS AND ADMINISTRATION SITE CONDITIONS,MILD,N,NONE,NONE,POSSIBLY,"RESOLVED, NO SEQUELAE",,,,,,,,2002,2002,2,4,
NIDA-CTN-0001,AE,01_019437,2002,29,FOLLOW-UP 1,FOLLOW-UP 1,15,2010,BACKACHE,BACK PAIN,MUSCULOSKELETAL AND CONNECTIVE TISSUE DISORDERS,MILD,N,NONE,NONE,DEFINITELY NOT,"RESOLVED, NO SEQUELAE",,,,,,,,2002,2002,17,28,
NIDA-CTN-0001,AE,01_019437,2002,29,FOLLOW-UP 1,FOLLOW-UP 1,15,2011,CHILLS,RIGORS,GENERAL DISORDERS AND ADMINISTRATION SITE CONDITIONS,MILD,N,NONE,NONE,DEFINITELY NOT,"RESOLVED, NO SEQUELAE",,,,,,,,2002,2002,16,19,
NIDA-CTN-0001,AE,01_019437,2002,5,ACTIVE,STUDY DAY 5,5,2012,DIARRHEA,DIARRHOEA,GASTROINTESTINAL DISORDERS,MODERATE,N,NONE,THERAPY PHARMACOLOGY (OTC OR RX),UNKNOWN,"RESOLVED, NO SEQUELAE",,,,,,,Y,2002,2002,4,5,
NIDA-CTN-0001,AE,01_019437,2002,8,ACTIVE,STUDY DAY 8,8,2013,DIZZINESS,DIZZINESS,NERVOUS SYSTEM DISORDERS,MILD,N,NONE,NONE,UNKNOWN,"RESOLVED, NO SEQUELAE",,,,,,,,2002,2002,8,8,
NIDA-CTN-0001,AE,01_019437,2002,3,ACTIVE,STUDY DAY 3,3,2014,HEADACHE,HEADACHE,NERVOUS SYSTEM DISORDERS,MODERATE,N,NONE,THERAPY PHARMACOLOGY (OTC OR RX),DEFINITELY NOT,"RESOLVED, NO SEQUELAE",,,,,,,Y,2002,2002,3,3,
NIDA-CTN-0001,AE,01_019437,2002,2,ACTIVE,STUDY DAY 2,2,2015,INSOMNIA,INSOMNIA,PSYCHIATRIC DISORDERS,MODERATE,N,NONE,THERAPY PHARMACOLOGY (OTC OR RX),DEFINITELY NOT,"NOT YET RESOLVED, NO CHANGE",,,,,,,Y,2002,,1," ",
NIDA-CTN-0001,AE,01_019437,2002,3,ACTIVE,STUDY DAY 3,3,2016,INSOMNIA,INSOMNIA,PSYCHIATRIC DISORDERS,MODERATE,N,NONE,NONE,DEFINITELY NOT,"NOT YET RESOLVED, NO CHANGE",,,,,,,,2002,,1," ",
NIDA-CTN-0001,AE,01_019437,2002,4,ACTIVE,STUDY DAY 4,4,2017,INSOMNIA,INSOMNIA,PSYCHIATRIC DISORDERS,MODERATE,N,NONE,THERAPY PHARMACOLOGY (OTC OR RX),DEFINITELY NOT,"NOT YET RESOLVED, BUT IMPROVING",,,,,,,Y,2002,,1," ",
NIDA-CTN-0001,AE,01_019437,2002,5,ACTIVE,STUDY DAY 5,5,2018,INSOMNIA,INSOMNIA,PSYCHIATRIC DISORDERS,MODERATE,N,NONE,THERAPY PHARMACOLOGY (OTC OR RX),DEFINITELY NOT,"NOT YET RESOLVED, NO CHANGE",,,,,,,Y,2002,,1," ",
NIDA-CTN-0001,AE,01_019437,2002,6,ACTIVE,STUDY DAY 6,6,2019,INSOMNIA,INSOMNIA,PSYCHIATRIC DISORDERS,MODERATE,N,NONE,THERAPY PHARMACOLOGY (OTC OR RX),DEFINITELY NOT,"NOT YET RESOLVED, NO CHANGE",,,,,,,Y,2002,,1," ",
NIDA-CTN-0001,AE,01_019437,2002,7,ACTIVE,STUDY DAY 7,7,2020,INSOMNIA,INSOMNIA,PSYCHIATRIC DISORDERS,MODERATE,N,NONE,THERAPY PHARMACOLOGY (OTC OR RX),DEFINITELY NOT,"NOT YET RESOLVED, BUT IMPROVING",,,,,,,Y,2002,,1," ",
NIDA-CTN-0001,AE,01_019437,2002,8,ACTIVE,STUDY DAY 8,8,2021,INSOMNIA,INSOMNIA,PSYCHIATRIC DISORDERS,MODERATE,N,NONE,NONE,DEFINITELY NOT,"NOT YET RESOLVED, WORSENING",,,,,,,,2002,,1," ",
NIDA-CTN-0001,AE,01_019437,2002,9,ACTIVE,STUDY DAY 9,9,2022,INSOMNIA,INSOMNIA,PSYCHIATRIC DISORDERS,MODERATE,N,NONE,THERAPY PHARMACOLOGY (OTC OR RX),DEFINITELY NOT,"NOT YET RESOLVED, BUT IMPROVING",,,,,,,Y,2002,,1," ",
NIDA-CTN-0001,AE,01_019437,2002,10,ACTIVE,STUDY DAY 10,10,2023,INSOMNIA,INSOMNIA,PSYCHIATRIC DISORDERS,MODERATE,N,NONE,THERAPY PHARMACOLOGY (OTC OR RX),DEFINITELY NOT,"NOT YET RESOLVED, BUT IMPROVING",,,,,,,Y,2002,,1," ",
NIDA-CTN-0001,AE,01_019437,2002,11,ACTIVE,STUDY DAY 11,11,2024,INSOMNIA,INSOMNIA,PSYCHIATRIC DISORDERS,MODERATE,N,NONE,THERAPY PHARMACOLOGY (OTC OR RX),DEFINITELY NOT,"NOT YET RESOLVED, BUT IMPROVING",,,,,,,Y,2002,,1," ",
NIDA-CTN-0001,AE,01_019437,2002,12,ACTIVE,STUDY DAY 12,12,2025,INSOMNIA,INSOMNIA,PSYCHIATRIC DISORDERS,MODERATE,N,NONE,THERAPY PHARMACOLOGY (OTC OR RX),DEFINITELY NOT,"NOT YET RESOLVED, NO CHANGE",,,,,,,Y,2002,,1," ",
NIDA-CTN-0001,AE,01_019437,2002,13,ACTIVE,STUDY DAY 13,13,2026,INSOMNIA,INSOMNIA,PSYCHIATRIC DISORDERS,MODERATE,N,NONE,THERAPY PHARMACOLOGY (OTC OR RX),DEFINITELY NOT,"NOT YET RESOLVED, NO CHANGE",,,,,,,Y,2002,,1," ",
NIDA-CTN-0001,AE,01_019437,2002,14,ACTIVE,STUDY DAY 14,14,2027,INSOMNIA,INSOMNIA,PSYCHIATRIC DISORDERS,MODERATE,N,NONE,THERAPY PHARMACOLOGY (OTC OR RX),DEFINITELY NOT,"NOT YET RESOLVED, NO CHANGE",,,,,,,Y,2002,,1," ",
NIDA-CTN-0001,AE,01_019437,2002,29,FOLLOW-UP 1,FOLLOW-UP 1,15,2028,INSOMNIA,INSOMNIA,PSYCHIATRIC DISORDERS,MODERATE,N,NONE,NONE,DEFINITELY NOT,"RESOLVED, NO SEQUELAE",,,,,,,,2002,2002,1,22,
NIDA-CTN-0001,AE,01_019437,2002,29,FOLLOW-UP 1,FOLLOW-UP 1,15,2029,LEG PAIN,PAIN IN EXTREMITY,MUSCULOSKELETAL AND CONNECTIVE TISSUE DISORDERS,MILD,N,NONE,NONE,DEFINITELY NOT,"RESOLVED, NO SEQUELAE",,,,,,,,2002,2002,17,28,
NIDA-CTN-0001,AE,01_019437,2002,4,ACTIVE,STUDY DAY 4,4,2030,NAUSEA,NAUSEA,GASTROINTESTINAL DISORDERS,MILD,N,NONE,NONE,UNKNOWN,"RESOLVED, NO SEQUELAE",,,,,,,Y,2002,2002,3,3,
NIDA-CTN-0001,AE,01_019437,2002,3,ACTIVE,STUDY DAY 3,3,2031,RHINORRHEA,RHINORRHOEA,"RESPIRATORY, THORACIC AND MEDIASTINAL DISORDERS",MILD,N,NONE,NONE,DEFINITELY NOT,"RESOLVED, NO SEQUELAE",,,,,,,,2002,2002,3,3,
NIDA-CTN-0001,AE,01_019437,2002,7,ACTIVE,STUDY DAY 7,7,2032,RHINORRHEA,RHINORRHOEA,"RESPIRATORY, THORACIC AND MEDIASTINAL DISORDERS",MILD,N,NONE,NONE,UNKNOWN,"RESOLVED, NO SEQUELAE",,,,,,,Y,2002,2002,7,7,
NIDA-CTN-0001,AE,01_019437,2002,8,ACTIVE,STUDY DAY 8,8,2033,RHINORRHEA,RHINORRHOEA,"RESPIRATORY, THORACIC AND MEDIASTINAL DISORDERS",MILD,N,NONE,NONE,DEFINITELY NOT,"RESOLVED, NO SEQUELAE",,,,,,,,2002,2002,8,8,
NIDA-CTN-0001,AE,01_019437,2002,11,ACTIVE,STUDY DAY 11,11,2034,RHINORRHEA,RHINORRHOEA,"RESPIRATORY, THORACIC AND MEDIASTINAL DISORDERS",MILD,N,NONE,NONE,UNKNOWN,"RESOLVED, NO SEQUELAE",,,,,,,Y,2002,2002,11,11,
NIDA-CTN-0001,AE,01_019437,2002,6,ACTIVE,STUDY DAY 6,6,2035,SAD,DEPRESSED MOOD,PSYCHIATRIC DISORDERS,MILD,N,NONE,NONE,DEFINITELY NOT,"NOT YET RESOLVED, BUT IMPROVING",,,,,,,Y,2002,2002,5,5,
NIDA-CTN-0001,AE,01_019437,2002,13,ACTIVE,STUDY DAY 13,13,2036,SAD,DEPRESSED MOOD,PSYCHIATRIC DISORDERS,MILD,N,NONE,NONE,DEFINITELY NOT,"NOT YET RESOLVED, WORSENING",,,,,,,Y,2002,,12," ",
NIDA-CTN-0001,AE,01_019437,2002,14,ACTIVE,STUDY DAY 14,14,2037,SAD,DEPRESSED MOOD,PSYCHIATRIC DISORDERS,MILD,N,NONE,NONE,DEFINITELY NOT,"NOT YET RESOLVED, NO CHANGE",,,,,,,Y,2002,,12," ",
NIDA-CTN-0001,AE,01_019437,2002,29,FOLLOW-UP 1,FOLLOW-UP 1,15,2038,SAD,DEPRESSED MOOD,PSYCHIATRIC DISORDERS,MILD,N,NONE,NONE,DEFINITELY NOT,"RESOLVED, NO SEQUELAE",,,,,,,,2002,2002,12,25,
NIDA-CTN-0001,AE,01_019437,2002,29,FOLLOW-UP 1,FOLLOW-UP 1,15,2039,SCRATCHY THROAT,THROAT IRRITATION,"RESPIRATORY, THORACIC AND MEDIASTINAL DISORDERS",MILD,N,NONE,NONE,DEFINITELY NOT,"RESOLVED, NO SEQUELAE",,,,,,,,2002,2002,21,27,
NIDA-CTN-0001,AE,01_019437,2002,3,ACTIVE,STUDY DAY 3,3,2040,SWEATING,HYPERHIDROSIS,SKIN AND SUBCUTANEOUS TISSUE DISORDERS,MILD,N,NONE,NONE,DEFINITELY NOT,"RESOLVED, NO SEQUELAE",,,,,,,Y,2002,2002,3,3,
NIDA-CTN-0001,AE,01_019437,2002,8,ACTIVE,STUDY DAY 8,8,2041,SWEATING,HYPERHIDROSIS,SKIN AND SUBCUTANEOUS TISSUE DISORDERS,MILD,N,NONE,NONE,DEFINITELY NOT,"RESOLVED, NO SEQUELAE",,,,,,,,2002,2002,8,8,
NIDA-CTN-0001,AE,01_019437,2002,29,FOLLOW-UP 1,FOLLOW-UP 1,15,2042,SWEATING,HYPERHIDROSIS,SKIN AND SUBCUTANEOUS TISSUE DISORDERS,MILD,N,NONE,NONE,DEFINITELY NOT,"RESOLVED, NO SEQUELAE",,,,,,,,2002,2002,16,19,
NIDA-CTN-0001,AE,01_019437,2002,29,FOLLOW-UP 1,FOLLOW-UP 1,15,2043,WEAKNESS,ASTHENIA,GENERAL DISORDERS AND ADMINISTRATION SITE CONDITIONS,MILD,N,NONE,NONE,DEFINITELY NOT,"RESOLVED, NO SEQUELAE",,,,,,,,2002,2002,16,23,
NIDA-CTN-0001,AE,01_020369,2001,2,ACTIVE,STUDY DAY 2,2,2051,BONE PAIN,BONE PAIN,MUSCULOSKELETAL AND CONNECTIVE TISSUE DISORDERS,MODERATE,N,NONE,THERAPY PHARMACOLOGY (OTC OR RX),DEFINITELY NOT,"RESOLVED, NO SEQUELAE",,,,,,,Y,2001,2001,1,3,
NIDA-CTN-0001,AE,01_020369,2001,4,ACTIVE,STUDY DAY 4,4,2052,INSOMNIA,INSOMNIA,PSYCHIATRIC DISORDERS,MILD,N,NONE,THERAPY PHARMACOLOGY (OTC OR RX),DEFINITELY NOT,"RESOLVED, NO SEQUELAE",,,,,,,Y,2001,2001,3,5,
NIDA-CTN-0001,AE,01_020369,2001,9,ACTIVE,STUDY DAY 9,9,2053,INSOMNIA,INSOMNIA,PSYCHIATRIC DISORDERS,MODERATE,N,NONE,THERAPY PHARMACOLOGY (OTC OR RX),DEFINITELY NOT,"RESOLVED, NO SEQUELAE",,,,,,,Y,2001,2001,8,9,
NIDA-CTN-0001,AE,01_020369,2001,10,ACTIVE,STUDY DAY 10,10,2054,INSOMNIA,INSOMNIA,PSYCHIATRIC DISORDERS,MODERATE,N,NONE,NONE,DEFINITELY NOT,"RESOLVED, NO SEQUELAE",,,,,,,,2001,2001,10,11,
NIDA-CTN-0001,AE,01_020369,2001,11,ACTIVE,STUDY DAY 11,11,2055,INSOMNIA,INSOMNIA,PSYCHIATRIC DISORDERS,MILD,N,NONE,THERAPY PHARMACOLOGY (OTC OR RX),DEFINITELY NOT,"RESOLVED, NO SEQUELAE",,,,,,,Y,2001,2001,11,13,
NIDA-CTN-0001,AE,01_020369,2001,7,ACTIVE,STUDY DAY 7,7,2056,LIGHT HEADED,DIZZINESS,NERVOUS SYSTEM DISORDERS,,N,,,,UNKNOWN,,,,,,,,2001,,6," ",
NIDA-CTN-0001,AE,01_020369,2001,2,ACTIVE,STUDY DAY 2,2,2057,NAUSEA,NAUSEA,GASTROINTESTINAL DISORDERS,,N,,,,"RESOLVED, NO SEQUELAE",,,,,,,,2001,2001,1,3,
NIDA-CTN-0001,AE,01_020369,2001,2,ACTIVE,STUDY DAY 2,2,2058,RESTLESS,RESTLESSNESS,PSYCHIATRIC DISORDERS,SEVERE,N,NONE,THERAPY PHARMACOLOGY (OTC OR RX),DEFINITELY NOT,"RESOLVED, NO SEQUELAE",,,,,,,Y,2001,2001,1,9,
NIDA-CTN-0001,AE,01_020369,2001,2,ACTIVE,STUDY DAY 2,2,2059,STOMACH CRAMPS,ABDOMINAL PAIN UPPER,GASTROINTESTINAL DISORDERS,MILD,N,NONE,THERAPY PHARMACOLOGY (OTC OR RX),DEFINITELY NOT,"RESOLVED, NO SEQUELAE",,,,,,,Y,2001,2001,1,9,
NIDA-CTN-0001,AE,01_021516,2001,1,ACTIVE,STUDY DAY 1,1,1136,ANXIETY,ANXIETY NEC,PSYCHIATRIC DISORDERS,SEVERE,N,NONE,THERAPY PHARMACOLOGY (OTC OR RX),DEFINITELY NOT,"RESOLVED, NO SEQUELAE",,,,,,,Y,2001,2001,-1,7,
NIDA-CTN-0001,AE,01_021516,2001,1,ACTIVE,STUDY DAY 1,1,1137,BACK PAIN,BACK PAIN,MUSCULOSKELETAL AND CONNECTIVE TISSUE DISORDERS,MODERATE,N,NONE,THERAPY PHARMACOLOGY (OTC OR RX),DEFINITELY NOT,"RESOLVED, NO SEQUELAE",,,,,,,Y,2001,2001,-1,1,
NIDA-CTN-0001,AE,01_021516,2001,9,ACTIVE,STUDY DAY 9,9,1138,HEADACHE,HEADACHE NOS,NERVOUS SYSTEM DISORDERS,MILD,N,NONE,NONE,REMOTELY,"RESOLVED, NO SEQUELAE",,,,,,,,2001,2001,9,9,
NIDA-CTN-0001,AE,01_021516,2001,1,ACTIVE,STUDY DAY 1,1,1139,INSOMNIA,INSOMNIA,PSYCHIATRIC DISORDERS,SEVERE,N,NONE,THERAPY PHARMACOLOGY (OTC OR RX),DEFINITELY NOT,"RESOLVED, NO SEQUELAE",,,,,,,Y,2001,2001,-1,1,
NIDA-CTN-0001,AE,01_021516,2001,5,ACTIVE,STUDY DAY 5,5,1140,INSOMNIA,INSOMNIA,PSYCHIATRIC DISORDERS,MODERATE,N,NONE,NONE,REMOTELY,"RESOLVED, NO SEQUELAE",,,,,,,,2001,2001,4,5,
NIDA-CTN-0001,AE,01_021516,2001,6,ACTIVE,STUDY DAY 6,6,1141,IRRITABILITY,IRRITABILITY,PSYCHIATRIC DISORDERS,MODERATE,N,NONE,THERAPY PHARMACOLOGY (OTC OR RX),DEFINITELY NOT,"RESOLVED, NO SEQUELAE",,,,,,,Y,2001,2001,5,8,
NIDA-CTN-0001,AE,01_021516,2001,1,ACTIVE,STUDY DAY 1,1,1142,MUSCLE CRAMPS,MUSCLE CRAMPS,MUSCULOSKELETAL AND CONNECTIVE TISSUE DISORDERS,MODERATE,N,NONE,THERAPY PHARMACOLOGY (OTC OR RX),DEFINITELY NOT,"RESOLVED, NO SEQUELAE",,,,,,,Y,2001,2001,-1,1,
NIDA-CTN-0001,AE,01_021516,2001,2,ACTIVE,STUDY DAY 2,2,1143,NIGHT SWEATS,NIGHT SWEATS,SKIN AND SUBCUTANEOUS TISSUE DISORDERS,MILD,N,NONE,NONE,REMOTELY,"RESOLVED, NO SEQUELAE",,,,,,,,2001,2001,2,3,
NIDA-CTN-0001,AE,01_021516,2001,1,ACTIVE,STUDY DAY 1,1,1144,SHAKES,NERVOUSNESS,PSYCHIATRIC DISORDERS,SEVERE,N,NONE,THERAPY PHARMACOLOGY (OTC OR RX),DEFINITELY NOT,"RESOLVED, NO SEQUELAE",,,,,,,Y,2001,2001,-1,1,
NIDA-CTN-0001,AE,01_021985,2001,2,ACTIVE,STUDY DAY 2,2,356,ACHES,PAIN NOS,GENERAL DISORDERS AND ADMINISTRATION SITE CONDITIONS,MODERATE,N,NONE,THERAPY PHARMACOLOGY (OTC OR RX) THERAPY NON-PHARMACOLOGY,REMOTELY,"RESOLVED, NO SEQUELAE",,,,,,,Y,2001,2001,2,3,
NIDA-CTN-0001,AE,01_021985,2001,10,ACTIVE,STUDY DAY 10,10,357,ACHES,PAIN,GENERAL DISORDERS AND ADMINISTRATION SITE CONDITIONS,MODERATE,N,NONE,THERAPY PHARMACOLOGY (OTC OR RX) THERAPY NON-PHARMACOLOGY,REMOTELY,"RESOLVED, NO SEQUELAE",,,,,,,Y,2001,2001,10,13,
NIDA-CTN-0001,AE,01_021985,2001,11,ACTIVE,STUDY DAY 11,11,358,ACHES,PAIN NOS,GENERAL DISORDERS AND ADMINISTRATION SITE CONDITIONS,MODERATE,N,NONE,THERAPY PHARMACOLOGY (OTC OR RX) THERAPY NON-PHARMACOLOGY,REMOTELY,"RESOLVED, NO SEQUELAE",,,,,,,Y,2001,2001,11,13,
NIDA-CTN-0001,AE,01_021985,2001,11,ACTIVE,STUDY DAY 11,11,359,ACHES,PAIN NOS,GENERAL DISORDERS AND ADMINISTRATION SITE CONDITIONS,MODERATE,N,NONE,THERAPY PHARMACOLOGY (OTC OR RX) THERAPY NON-PHARMACOLOGY,REMOTELY,"RESOLVED, NO SEQUELAE",,,,,,,Y,2001,2001,11,13,
NIDA-CTN-0001,AE,01_021985,2001,1,ACTIVE,STUDY DAY 1,1,360,ACHY,PAIN NOS,GENERAL DISORDERS AND ADMINISTRATION SITE CONDITIONS,MODERATE,N,NONE,THERAPY PHARMACOLOGY (OTC OR RX) THERAPY NON-PHARMACOLOGY,DEFINITELY NOT,"RESOLVED, NO SEQUELAE",,,,,,,Y,2001,2001,1,3,
NIDA-CTN-0001,AE,01_021985,2001,6,ACTIVE,STUDY DAY 6,6,361,AGITATION,AGITATION,PSYCHIATRIC DISORDERS,MODERATE,N,NONE,THERAPY PHARMACOLOGY (OTC OR RX) THERAPY NON-PHARMACOLOGY,REMOTELY,"RESOLVED, NO SEQUELAE",,,,,,,Y,2001,2001,6,7,
NIDA-CTN-0001,AE,01_021985,2001,11,ACTIVE,STUDY DAY 11,11,362,AGITATION,AGITATION,PSYCHIATRIC DISORDERS,MODERATE,N,NONE,THERAPY PHARMACOLOGY (OTC OR RX) THERAPY NON-PHARMACOLOGY,REMOTELY,"RESOLVED, NO SEQUELAE",,,,,,,Y,2001,2001,11,11,
NIDA-CTN-0001,AE,01_021985,2001,1,ACTIVE,STUDY DAY 1,1,363,ANXIETY,ANXIETY NEC,PSYCHIATRIC DISORDERS,MODERATE,N,NONE,THERAPY PHARMACOLOGY (OTC OR RX) THERAPY NON-PHARMACOLOGY,DEFINITELY NOT,"RESOLVED, NO SEQUELAE",,,,,,,Y,2001,2001,1,13,
NIDA-CTN-0001,AE,01_021985,2001,14,ACTIVE,STUDY DAY 14,14,364,ANXIETY,ANXIETY NEC,PSYCHIATRIC DISORDERS,MODERATE,N,NONE,THERAPY PHARMACOLOGY (OTC OR RX) THERAPY NON-PHARMACOLOGY,REMOTELY,"NOT YET RESOLVED, BUT IMPROVING",,,,,,,Y,2001,,14," ",
NIDA-CTN-0001,AE,01_021985,2001,2,ACTIVE,STUDY DAY 2,2,365,BACK PAIN,BACK PAIN,MUSCULOSKELETAL AND CONNECTIVE TISSUE DISORDERS,MODERATE,N,NONE,THERAPY PHARMACOLOGY (OTC OR RX) THERAPY NON-PHARMACOLOGY,REMOTELY,"RESOLVED, NO SEQUELAE",,,,,,,Y,2001,2001,2,4,
NIDA-CTN-0001,AE,01_021985,2001,3,ACTIVE,STUDY DAY 3,3,366,BACK PAIN,BACK PAIN,MUSCULOSKELETAL AND CONNECTIVE TISSUE DISORDERS,MODERATE,N,NONE,THERAPY PHARMACOLOGY (OTC OR RX) THERAPY NON-PHARMACOLOGY,REMOTELY,"RESOLVED, NO SEQUELAE",,,,,,,Y,2001,2001,3,4,
NIDA-CTN-0001,AE,01_021985,2001,4,ACTIVE,STUDY DAY 4,4,367,BACK PAIN,BACK PAIN,MUSCULOSKELETAL AND CONNECTIVE TISSUE DISORDERS,MODERATE,N,NONE,THERAPY PHARMACOLOGY (OTC OR RX) THERAPY NON-PHARMACOLOGY,DEFINITELY NOT,"RESOLVED, NO SEQUELAE",,,,,,,Y,2001,2001,4,5,
NIDA-CTN-0001,AE,01_021985,2001,10,ACTIVE,STUDY DAY 10,10,368,BACK PAIN,BACK PAIN,MUSCULOSKELETAL AND CONNECTIVE TISSUE DISORDERS,MODERATE,N,NONE,THERAPY PHARMACOLOGY (OTC OR RX) THERAPY NON-PHARMACOLOGY,DEFINITELY NOT,"RESOLVED, NO SEQUELAE",,,,,,,Y,2001,2001,10,14,
NIDA-CTN-0001,AE,01_021985,2001,2,ACTIVE,STUDY DAY 2,2,369,BONE PAIN,BONE PAIN,MUSCULOSKELETAL AND CONNECTIVE TISSUE DISORDERS,MODERATE,N,NONE,THERAPY PHARMACOLOGY (OTC OR RX) THERAPY NON-PHARMACOLOGY,REMOTELY,"RESOLVED, NO SEQUELAE",,,,,,,Y,2001,2001,2,3,
NIDA-CTN-0001,AE,01_021985,2001,1,ACTIVE,STUDY DAY 1,1,370,CHILLS,RIGORS,GENERAL DISORDERS AND ADMINISTRATION SITE CONDITIONS,MODERATE,N,NONE,THERAPY PHARMACOLOGY (OTC OR RX) THERAPY NON-PHARMACOLOGY,REMOTELY,"RESOLVED, NO SEQUELAE",,,,,,,Y,2001,2001,1,2,
NIDA-CTN-0001,AE,01_021985,2001,3,ACTIVE,STUDY DAY 3,3,371,CHILLS,RIGORS,GENERAL DISORDERS AND ADMINISTRATION SITE CONDITIONS,MODERATE,N,NONE,THERAPY PHARMACOLOGY (OTC OR RX) THERAPY NON-PHARMACOLOGY,REMOTELY,"RESOLVED, NO SEQUELAE",,,,,,,Y,2001,2001,3,6,
NIDA-CTN-0001,AE,01_021985,2001,13,ACTIVE,STUDY DAY 13,13,372,CHILLS,RIGORS,GENERAL DISORDERS AND ADMINISTRATION SITE CONDITIONS,MODERATE,N,NONE,THERAPY PHARMACOLOGY (OTC OR RX) THERAPY NON-PHARMACOLOGY,REMOTELY,"RESOLVED, NO SEQUELAE",,,,,,,Y,2001,2001,13,14,
NIDA-CTN-0001,AE,01_021985,2001,1,ACTIVE,STUDY DAY 1,1,373,CRAMPS,MUSCLE CRAMPS,MUSCULOSKELETAL AND CONNECTIVE TISSUE DISORDERS,MODERATE,N,NONE,THERAPY PHARMACOLOGY (OTC OR RX) THERAPY NON-PHARMACOLOGY,DEFINITELY NOT,"RESOLVED, NO SEQUELAE",,,,,,,Y,2001,2001,1,4,
NIDA-CTN-0001,AE,01_021985,2001,3,ACTIVE,STUDY DAY 3,3,374,DIAPHORETIC,HYPERHIDROSIS,SKIN AND SUBCUTANEOUS TISSUE DISORDERS,MODERATE,N,NONE,THERAPY PHARMACOLOGY (OTC OR RX) THERAPY NON-PHARMACOLOGY,REMOTELY,"RESOLVED, NO SEQUELAE",,,,,,,Y,2001,2001,3,4,
NIDA-CTN-0001,AE,01_021985,2001,11,ACTIVE,STUDY DAY 11,11,375,DIAPHORETIC,HYPERHIDROSIS,SKIN AND SUBCUTANEOUS TISSUE DISORDERS,MODERATE,N,NONE,THERAPY PHARMACOLOGY (OTC OR RX) THERAPY NON-PHARMACOLOGY,REMOTELY,"RESOLVED, NO SEQUELAE",,,,,,,Y,2001,2001,11,15,
NIDA-CTN-0001,AE,01_021985,2001,1,ACTIVE,STUDY DAY 1,1,376,DIARRHEA,DIARRHOEA NOS,GASTROINTESTINAL DISORDERS,MODERATE,N,NONE,THERAPY PHARMACOLOGY (OTC OR RX) THERAPY NON-PHARMACOLOGY,DEFINITELY NOT,"RESOLVED, NO SEQUELAE",,,,,,,Y,2001,2001,1,2,
NIDA-CTN-0001,AE,01_021985,2001,5,ACTIVE,STUDY DAY 5,5,377,FEARS,"FEAR, FOCUS NEC",PSYCHIATRIC DISORDERS,MODERATE,N,NONE,THERAPY PHARMACOLOGY (OTC OR RX) THERAPY NON-PHARMACOLOGY,REMOTELY,"RESOLVED, NO SEQUELAE",,,,,,,Y,2001,2001,5,6,
NIDA-CTN-0001,AE,01_021985,2001,8,ACTIVE,STUDY DAY 8,8,378,GI UPSET,GASTROINTESTINAL UPSET,GASTROINTESTINAL DISORDERS,MODERATE,N,NONE,NONE,DEFINITELY NOT,"RESOLVED, NO SEQUELAE",,,,,,,,2001,2001,8,9,
NIDA-CTN-0001,AE,01_021985,2001,1,ACTIVE,STUDY DAY 1,1,379,GOOSEFLESH,PILOERECTION,SKIN AND SUBCUTANEOUS TISSUE DISORDERS,MODERATE,N,NONE,THERAPY PHARMACOLOGY (OTC OR RX) THERAPY NON-PHARMACOLOGY,REMOTELY,"RESOLVED, NO SEQUELAE",,,,,,,Y,2001,2001,1,2,
NIDA-CTN-0001,AE,01_021985,2001,2,ACTIVE,STUDY DAY 2,2,380,HOT AND COLD,FEELING HOT AND COLD,GENERAL DISORDERS AND ADMINISTRATION SITE CONDITIONS,MODERATE,N,NONE,THERAPY PHARMACOLOGY (OTC OR RX) THERAPY NON-PHARMACOLOGY,REMOTELY,"RESOLVED, NO SEQUELAE",,,,,,,Y,2001,2001,2,4,
NIDA-CTN-0001,AE,01_021985,2001,13,ACTIVE,STUDY DAY 13,13,381,HOT AND COLD,FEELING HOT AND COLD,GENERAL DISORDERS AND ADMINISTRATION SITE CONDITIONS,MODERATE,N,NONE,THERAPY PHARMACOLOGY (OTC OR RX) THERAPY NON-PHARMACOLOGY,REMOTELY,"RESOLVED, NO SEQUELAE",,,,,,,Y,2001,2001,13,14,
NIDA-CTN-0001,AE,01_021985,2001,1,ACTIVE,STUDY DAY 1,1,382,INNER TREMOR,TREMOR,NERVOUS SYSTEM DISORDERS,MODERATE,,NONE,THERAPY PHARMACOLOGY (OTC OR RX) THERAPY NON-PHARMACOLOGY,REMOTELY,"RESOLVED, NO SEQUELAE",,,,,,,Y,2001,2001,1,3,
NIDA-CTN-0001,AE,01_021985,2001,2,ACTIVE,STUDY DAY 2,2,383,INSOMNIA,INSOMNIA,PSYCHIATRIC DISORDERS,MODERATE,N,NONE,THERAPY PHARMACOLOGY (OTC OR RX) THERAPY NON-PHARMACOLOGY,DEFINITELY NOT,"RESOLVED, NO SEQUELAE",,,,,,,Y,2001,2001,2,3,
NIDA-CTN-0001,AE,01_021985,2001,9,ACTIVE,STUDY DAY 9,9,384,INSOMNIA,INSOMNIA,PSYCHIATRIC DISORDERS,MODERATE,N,NONE,THERAPY PHARMACOLOGY (OTC OR RX) THERAPY NON-PHARMACOLOGY,REMOTELY,"RESOLVED, NO SEQUELAE",,,,,,,Y,2001,2001,9,10,
NIDA-CTN-0001,AE,01_021985,2001,9,ACTIVE,STUDY DAY 9,9,385,IRRITABILITY,IRRITABILITY,PSYCHIATRIC DISORDERS,MODERATE,N,NONE,THERAPY PHARMACOLOGY (OTC OR RX) THERAPY NON-PHARMACOLOGY,REMOTELY,"RESOLVED, NO SEQUELAE",,,,,,,Y,2001,2001,9,11,
NIDA-CTN-0001,AE,01_021985,2001,6,ACTIVE,STUDY DAY 6,6,386,IRRITABLE,IRRITABILITY,PSYCHIATRIC DISORDERS,MODERATE,N,NONE,THERAPY PHARMACOLOGY (OTC OR RX) THERAPY NON-PHARMACOLOGY,REMOTELY,"RESOLVED, NO SEQUELAE",,,,,,,Y,2001,2001,6,7,
NIDA-CTN-0001,AE,01_021985,2001,14,ACTIVE,STUDY DAY 14,14,387,IRRITABLITY,IRRITABILITY,PSYCHIATRIC DISORDERS,MODERATE,N,NONE,THERAPY PHARMACOLOGY (OTC OR RX) THERAPY NON-PHARMACOLOGY,REMOTELY,"NOT YET RESOLVED, BUT IMPROVING",,,,,,,Y,2001,,14," ",
NIDA-CTN-0001,AE,01_021985,2001,10,ACTIVE,STUDY DAY 10,10,388,JITTERY,FEELING JITTERY,GENERAL DISORDERS AND ADMINISTRATION SITE CONDITIONS,MODERATE,N,NONE,THERAPY PHARMACOLOGY (OTC OR RX) THERAPY NON-PHARMACOLOGY,REMOTELY,"RESOLVED, NO SEQUELAE",,,,,,,Y,2001,2001,10,11,
NIDA-CTN-0001,AE,01_021985,2001,1,ACTIVE,STUDY DAY 1,1,389,JOINT PAIN,ARTHRALGIA,MUSCULOSKELETAL AND CONNECTIVE TISSUE DISORDERS,MODERATE,N,NONE,THERAPY PHARMACOLOGY (OTC OR RX) THERAPY NON-PHARMACOLOGY,REMOTELY,"RESOLVED, NO SEQUELAE",,,,,,,Y,2001,2001,1,3,
NIDA-CTN-0001,AE,01_021985,2001,4,ACTIVE,STUDY DAY 4,4,390,JOINT PAIN,ARTHRALGIA,MUSCULOSKELETAL AND CONNECTIVE TISSUE DISORDERS,MODERATE,N,NONE,THERAPY PHARMACOLOGY (OTC OR RX) THERAPY NON-PHARMACOLOGY,REMOTELY,"RESOLVED, NO SEQUELAE",,,,,,,Y,2001,2001,4,5,
NIDA-CTN-0001,AE,01_021985,2001,10,ACTIVE,STUDY DAY 10,10,391,LEG ACHES,PAIN IN LIMB,MUSCULOSKELETAL AND CONNECTIVE TISSUE DISORDERS,MODERATE,N,NONE,THERAPY PHARMACOLOGY (OTC OR RX) THERAPY NON-PHARMACOLOGY,REMOTELY,"RESOLVED, NO SEQUELAE",,,,,,,Y,2001,2001,10,11,
NIDA-CTN-0001,AE,01_021985,2001,7,ACTIVE,STUDY DAY 7,7,392,LEG PAINS,PAIN IN EXTREMITY,MUSCULOSKELETAL AND CONNECTIVE TISSUE DISORDERS,MODERATE,N,NONE,THERAPY PHARMACOLOGY (OTC OR RX) THERAPY NON-PHARMACOLOGY,REMOTELY,"RESOLVED, NO SEQUELAE",,,,,,,Y,2001,2001,7,8,
NIDA-CTN-0001,AE,01_021985,2001,12,ACTIVE,STUDY DAY 12,12,393,MENSTRUAL CRAMPS,DYSMENORRHOEA,REPRODUCTIVE SYSTEM AND BREAST DISORDERS,MODERATE,N,NONE,THERAPY PHARMACOLOGY (OTC OR RX) THERAPY NON-PHARMACOLOGY,DEFINITELY NOT,"RESOLVED, NO SEQUELAE",,,,,,,Y,2001,2001,12,13,
NIDA-CTN-0001,AE,01_021985,2001,9,ACTIVE,STUDY DAY 9,9,394,MUSCLE ACHES,MYALGIA,MUSCULOSKELETAL AND CONNECTIVE TISSUE DISORDERS,MODERATE,N,NONE,THERAPY PHARMACOLOGY (OTC OR RX) THERAPY NON-PHARMACOLOGY,REMOTELY,"RESOLVED, NO SEQUELAE",,,,,,,Y,2001,2001,9,11,
NIDA-CTN-0001,AE,01_021985,2001,10,ACTIVE,STUDY DAY 10,10,395,MUSCLE ACHES,MYALGIA,MUSCULOSKELETAL AND CONNECTIVE TISSUE DISORDERS,MODERATE,N,NONE,THERAPY PHARMACOLOGY (OTC OR RX) THERAPY NON-PHARMACOLOGY,REMOTELY,"RESOLVED, NO SEQUELAE",,,,,,,Y,2001,2001,10,10,
NIDA-CTN-0001,AE,01_021985,2001,7,ACTIVE,STUDY DAY 7,7,396,MUSCLE CRAMPS,MUSCLE CRAMP,MUSCULOSKELETAL AND CONNECTIVE TISSUE DISORDERS,MODERATE,N,NONE,THERAPY PHARMACOLOGY (OTC OR RX) THERAPY NON-PHARMACOLOGY,REMOTELY,"RESOLVED, NO SEQUELAE",,,,,,,Y,2001,2001,7,8,
NIDA-CTN-0001,AE,01_021985,2001,11,ACTIVE,STUDY DAY 11,11,397,MUSCLE CRAMPS,MUSCLE CRAMP,MUSCULOSKELETAL AND CONNECTIVE TISSUE DISORDERS,MODERATE,N,NONE,THERAPY PHARMACOLOGY (OTC OR RX) THERAPY NON-PHARMACOLOGY,REMOTELY,"RESOLVED, NO SEQUELAE",,,,,,,Y,2001,2001,11,12,
NIDA-CTN-0001,AE,01_021985,2001,8,ACTIVE,STUDY DAY 8,8,398,MUSCLE SPASM,MUSCLE SPASMS,MUSCULOSKELETAL AND CONNECTIVE TISSUE DISORDERS,MODERATE,N,NONE,THERAPY PHARMACOLOGY (OTC OR RX) THERAPY NON-PHARMACOLOGY,REMOTELY,"RESOLVED, NO SEQUELAE",,,,,,,Y,2001,2001,8,12,
NIDA-CTN-0001,AE,01_021985,2001,9,ACTIVE,STUDY DAY 9,9,399,MUSCLE TWITCHING,MUSCLE TWITCHING,MUSCULOSKELETAL AND CONNECTIVE TISSUE DISORDERS,MODERATE,N,NONE,THERAPY PHARMACOLOGY (OTC OR RX) THERAPY NON-PHARMACOLOGY,REMOTELY,"RESOLVED, NO SEQUELAE",,,,,,,Y,2001,2001,9,10,
NIDA-CTN-0001,AE,01_021985,2001,6,ACTIVE,STUDY DAY 6,6,400,PANIC,PANIC REACTION,PSYCHIATRIC DISORDERS,MODERATE,N,NONE,THERAPY PHARMACOLOGY (OTC OR RX) THERAPY NON-PHARMACOLOGY,REMOTELY,"RESOLVED, NO SEQUELAE",,,,,,,Y,2001,2001,6,7,
NIDA-CTN-0001,AE,01_021985,2001,1,ACTIVE,STUDY DAY 1,1,401,RESTLESS,RESTLESSNESS,PSYCHIATRIC DISORDERS,MODERATE,N,NONE,THERAPY PHARMACOLOGY (OTC OR RX) THERAPY NON-PHARMACOLOGY,REMOTELY,"RESOLVED, NO SEQUELAE",,,,,,,Y,2001,2001,1,2,
NIDA-CTN-0001,AE,01_021985,2001,5,ACTIVE,STUDY DAY 5,5,402,RESTLESS,RESTLESSNESS,PSYCHIATRIC DISORDERS,MODERATE,N,NONE,THERAPY PHARMACOLOGY (OTC OR RX) THERAPY NON-PHARMACOLOGY,REMOTELY,"RESOLVED, NO SEQUELAE",,,,,,,Y,2001,2001,5,8,
NIDA-CTN-0001,AE,01_021985,2001,6,ACTIVE,STUDY DAY 6,6,403,RESTLESS,RESTLESSNESS,PSYCHIATRIC DISORDERS,MODERATE,N,NONE,THERAPY PHARMACOLOGY (OTC OR RX) THERAPY NON-PHARMACOLOGY,REMOTELY,"RESOLVED, NO SEQUELAE",,,,,,,Y,2001,2001,6,8,
NIDA-CTN-0001,AE,01_021985,2001,2,ACTIVE,STUDY DAY 2,2,404,SHAKEY,NERVOUSNESS,PSYCHIATRIC DISORDERS,MODERATE,N,NONE,THERAPY PHARMACOLOGY (OTC OR RX) THERAPY NON-PHARMACOLOGY,REMOTELY,"RESOLVED, NO SEQUELAE",,,,,,,Y,2001,2001,2,3,
NIDA-CTN-0001,AE,01_021985,2001,5,ACTIVE,STUDY DAY 5,5,405,SHORTNESS OF BREATH,DYSPNOEA,"RESPIRATORY, THORACIC AND MEDIASTINAL DISORDERS",MODERATE,N,NONE,THERAPY PHARMACOLOGY (OTC OR RX) THERAPY NON-PHARMACOLOGY,REMOTELY,"RESOLVED, NO SEQUELAE",,,,,,,Y,2001,2001,5,6,
NIDA-CTN-0001,AE,01_021985,2001,11,ACTIVE,STUDY DAY 11,11,406,SPASM,MUSCLE SPASMS,MUSCULOSKELETAL AND CONNECTIVE TISSUE DISORDERS,MODERATE,N,NONE,THERAPY PHARMACOLOGY (OTC OR RX) THERAPY NON-PHARMACOLOGY,REMOTELY,"RESOLVED, NO SEQUELAE",,,,,,,Y,2001,2001,11,11,
NIDA-CTN-0001,AE,01_021985,2001,3,ACTIVE,STUDY DAY 3,3,407,SPASM  MUSCLE,MUSCLE SPASMS,MUSCULOSKELETAL AND CONNECTIVE TISSUE DISORDERS,MODERATE,N,NONE,THERAPY PHARMACOLOGY (OTC OR RX) THERAPY NON-PHARMACOLOGY,REMOTELY,"RESOLVED, NO SEQUELAE",,,,,,,Y,2001,2001,3,5,
NIDA-CTN-0001,AE,01_021985,2001,1,ACTIVE,STUDY DAY 1,1,408,SWEATS,SWEATING INCREASED,SKIN AND SUBCUTANEOUS TISSUE DISORDERS,MODERATE,N,NONE,THERAPY PHARMACOLOGY (OTC OR RX) THERAPY NON-PHARMACOLOGY,REMOTELY,"RESOLVED, NO SEQUELAE",,,,,,,Y,2001,2001,1,5,
NIDA-CTN-0001,AE,01_021985,2001,10,ACTIVE,STUDY DAY 10,10,409,SWEATS,HYPERHIDROSIS,SKIN AND SUBCUTANEOUS TISSUE DISORDERS,MODERATE,N,NONE,THERAPY PHARMACOLOGY (OTC OR RX) THERAPY NON-PHARMACOLOGY,REMOTELY,UNKNOWN,,,,,,,Y,2001,2002,10,376,
NIDA-CTN-0001,AE,01_021985,2001,11,ACTIVE,STUDY DAY 11,11,410,SWEATS,SWEATING INCREASED,SKIN AND SUBCUTANEOUS TISSUE DISORDERS,MODERATE,N,NONE,THERAPY PHARMACOLOGY (OTC OR RX) THERAPY NON-PHARMACOLOGY,REMOTELY,"NOT YET RESOLVED, BUT IMPROVING",,,,,,,Y,2001,,11," ",
NIDA-CTN-0001,AE,01_021985,2001,5,ACTIVE,STUDY DAY 5,5,411,TEARFUL,TEARFULNESS,PSYCHIATRIC DISORDERS,MODERATE,N,NONE,THERAPY PHARMACOLOGY (OTC OR RX) THERAPY NON-PHARMACOLOGY,REMOTELY,"RESOLVED, NO SEQUELAE",,,,,,,Y,2001,2001,5,7,
NIDA-CTN-0001,AE,01_021985,2001,9,ACTIVE,STUDY DAY 9,9,412,TEARFUL,TEARFULNESS,PSYCHIATRIC DISORDERS,MODERATE,N,NONE,THERAPY PHARMACOLOGY (OTC OR RX) THERAPY NON-PHARMACOLOGY,REMOTELY,"RESOLVED, NO SEQUELAE",,,,,,,Y,2001,2001,9,9,
NIDA-CTN-0001,AE,01_021985,2001,10,ACTIVE,STUDY DAY 10,10,413,TEARFUL,TEARFULNESS,PSYCHIATRIC DISORDERS,MODERATE,N,NONE,THERAPY PHARMACOLOGY (OTC OR RX) THERAPY NON-PHARMACOLOGY,REMOTELY,"RESOLVED, NO SEQUELAE",,,,,,,Y,2001,2001,10,11,
NIDA-CTN-0001,AE,01_021985,2001,14,ACTIVE,STUDY DAY 14,14,414,TEARFUL,TEARFULNESS,PSYCHIATRIC DISORDERS,MODERATE,N,NONE,THERAPY PHARMACOLOGY (OTC OR RX) THERAPY NON-PHARMACOLOGY,REMOTELY,"NOT YET RESOLVED, BUT IMPROVING",,,,,,,Y,2001,,14," ",
NIDA-CTN-0001,AE,01_021985,2001,1,ACTIVE,STUDY DAY 1,1,415,TREMOR,TREMOR,NERVOUS SYSTEM DISORDERS,MODERATE,N,NONE,THERAPY PHARMACOLOGY (OTC OR RX) THERAPY NON-PHARMACOLOGY,REMOTELY,"RESOLVED, NO SEQUELAE",,,,,,,Y,2001,2001,1,2,
NIDA-CTN-0001,AE,01_021985,2001,5,ACTIVE,STUDY DAY 5,5,416,TREMOR,TREMOR,NERVOUS SYSTEM DISORDERS,MODERATE,N,NONE,THERAPY PHARMACOLOGY (OTC OR RX) THERAPY NON-PHARMACOLOGY,REMOTELY,"RESOLVED, NO SEQUELAE",,,,,,,Y,2001,2001,5,7,
NIDA-CTN-0001,AE,01_021985,2001,7,ACTIVE,STUDY DAY 7,7,417,TREMOR,TREMOR,NERVOUS SYSTEM DISORDERS,MODERATE,N,NONE,THERAPY PHARMACOLOGY (OTC OR RX) THERAPY NON-PHARMACOLOGY,REMOTELY,"RESOLVED, NO SEQUELAE",,,,,,,Y,2001,2001,7,8,
NIDA-CTN-0001,AE,01_021985,2001,13,ACTIVE,STUDY DAY 13,13,418,TREMOR,TREMOR,NERVOUS SYSTEM DISORDERS,MODERATE,N,NONE,THERAPY PHARMACOLOGY (OTC OR RX) THERAPY NON-PHARMACOLOGY,REMOTELY,"RESOLVED, NO SEQUELAE",,,,,,,Y,2001,2001,13,14,
NIDA-CTN-0001,AE,01_023001,2001,6,ACTIVE,STUDY DAY 6,6,38,ACHES,PAIN NOS,GENERAL DISORDERS AND ADMINISTRATION SITE CONDITIONS,MODERATE,N,NONE,THERAPY PHARMACOLOGY (OTC OR RX) THERAPY NON-PHARMACOLOGY,REMOTELY,"RESOLVED, NO SEQUELAE",,,,,,,Y,2001,2001,6,6,
NIDA-CTN-0001,AE,01_023001,2001,11,ACTIVE,STUDY DAY 11,11,39,ACHES,PAIN NOS,GENERAL DISORDERS AND ADMINISTRATION SITE CONDITIONS,MODERATE,N,NONE,THERAPY PHARMACOLOGY (OTC OR RX) THERAPY NON-PHARMACOLOGY,REMOTELY,"RESOLVED, NO SEQUELAE",,,,,,,Y,2001,2001,11,13,
NIDA-CTN-0001,AE,01_023001,2001,14,ACTIVE,STUDY DAY 14,14,40,ACHES MUSCLE,MYALGIA,MUSCULOSKELETAL AND CONNECTIVE TISSUE DISORDERS,MODERATE,N,NONE,THERAPY PHARMACOLOGY (OTC OR RX) THERAPY NON-PHARMACOLOGY,REMOTELY,"RESOLVED, NO SEQUELAE",,,,,,,Y,2001,2001,14,15,
NIDA-CTN-0001,AE,01_023001,2001,1,ACTIVE,STUDY DAY 1,1,41,ACHY,PAIN,GENERAL DISORDERS AND ADMINISTRATION SITE CONDITIONS,MODERATE,N,NONE,THERAPY PHARMACOLOGY (OTC OR RX),POSSIBLY,"RESOLVED, NO SEQUELAE",,,,,,,Y,2001,2001,1,2,
NIDA-CTN-0001,AE,01_023001,2001,3,ACTIVE,STUDY DAY 3,3,42,AGITATION,AGITATION,PSYCHIATRIC DISORDERS,MODERATE,N,NONE,THERAPY PHARMACOLOGY (OTC OR RX) THERAPY NON-PHARMACOLOGY,REMOTELY,"RESOLVED, NO SEQUELAE",,,,,,,Y,2001,2001,3,4,
NIDA-CTN-0001,AE,01_023001,2001,1,ACTIVE,STUDY DAY 1,1,43,ANXIETY,ANXIETY,PSYCHIATRIC DISORDERS,MODERATE,N,NONE,THERAPY PHARMACOLOGY (OTC OR RX) THERAPY NON-PHARMACOLOGY,POSSIBLY,"RESOLVED, NO SEQUELAE",,,,,,,Y,2001,2001,1,3,
NIDA-CTN-0001,AE,01_023001,2001,4,ACTIVE,STUDY DAY 4,4,44,ANXIETY,ANXIETY NEC,PSYCHIATRIC DISORDERS,MODERATE,N,NONE,THERAPY PHARMACOLOGY (OTC OR RX) THERAPY NON-PHARMACOLOGY,REMOTELY,"RESOLVED, NO SEQUELAE",,,,,,,Y,2001,2001,4,5,
NIDA-CTN-0001,AE,01_023001,2001,6,ACTIVE,STUDY DAY 6,6,45,ANXIETY,ANXIETY NEC,PSYCHIATRIC DISORDERS,MODERATE,N,NONE,THERAPY PHARMACOLOGY (OTC OR RX) THERAPY NON-PHARMACOLOGY,REMOTELY,"RESOLVED, NO SEQUELAE",,,,,,,Y,2001,2001,6,7,
NIDA-CTN-0001,AE,01_023001,2001,9,ACTIVE,STUDY DAY 9,9,46,ANXIETY,ANXIETY NEC,PSYCHIATRIC DISORDERS,MODERATE,N,NONE,THERAPY PHARMACOLOGY (OTC OR RX) THERAPY NON-PHARMACOLOGY,REMOTELY,"RESOLVED, NO SEQUELAE",,,,,,,Y,2001,2001,9,10,
NIDA-CTN-0001,AE,01_023001,2001,12,ACTIVE,STUDY DAY 12,12,47,ANXIETY,ANXIETY NEC,PSYCHIATRIC DISORDERS,MODERATE,N,NONE,THERAPY PHARMACOLOGY (OTC OR RX) THERAPY NON-PHARMACOLOGY,REMOTELY,"RESOLVED, NO SEQUELAE",,,,,,,Y,2001,2001,12,13,
NIDA-CTN-0001,AE,01_023001,2001,3,ACTIVE,STUDY DAY 3,3,48,BACK PAIN,BACK PAIN,MUSCULOSKELETAL AND CONNECTIVE TISSUE DISORDERS,MODERATE,N,NONE,THERAPY PHARMACOLOGY (OTC OR RX) THERAPY NON-PHARMACOLOGY,REMOTELY,"RESOLVED, NO SEQUELAE",,,,,,,Y,2001,2001,3,9,
NIDA-CTN-0001,AE,01_023001,2001,28,FOLLOW-UP 1,FOLLOW-UP 1,15,49,BACK PAIN  LOW,BACK PAIN,MUSCULOSKELETAL AND CONNECTIVE TISSUE DISORDERS,MODERATE,,NONE,THERAPY PHARMACOLOGY (OTC OR RX) THERAPY NON-PHARMACOLOGY,REMOTELY,"NOT YET RESOLVED, BUT IMPROVING",,,,,,,Y,2001,,28," ",
NIDA-CTN-0001,AE,01_023001,2001,10,ACTIVE,STUDY DAY 10,10,50,CHILLS,RIGORS,GENERAL DISORDERS AND ADMINISTRATION SITE CONDITIONS,MODERATE,N,NONE,THERAPY PHARMACOLOGY (OTC OR RX) THERAPY NON-PHARMACOLOGY,REMOTELY,"RESOLVED, NO SEQUELAE",,,,,,,Y,2001,2001,10,11,
NIDA-CTN-0001,AE,01_023001,2001,4,ACTIVE,STUDY DAY 4,4,51,CONSTIPATION,CONSTIPATION,GASTROINTESTINAL DISORDERS,MODERATE,N,NONE,THERAPY PHARMACOLOGY (OTC OR RX) THERAPY NON-PHARMACOLOGY,POSSIBLY,"RESOLVED, NO SEQUELAE",,,,,,,Y,2001,2001,4,-6,
NIDA-CTN-0001,AE,01_023001,2001,6,ACTIVE,STUDY DAY 6,6,52,CONSTIPATION,CONSTIPATION,GASTROINTESTINAL DISORDERS,MODERATE,N,NONE,THERAPY PHARMACOLOGY (OTC OR RX) THERAPY NON-PHARMACOLOGY,POSSIBLY,"RESOLVED, NO SEQUELAE",,,,,,,Y,2001,2001,6,6,
NIDA-CTN-0001,AE,01_023001,2001,11,ACTIVE,STUDY DAY 11,11,53,CONSTIPATION,CONSTIPATION,GASTROINTESTINAL DISORDERS,MODERATE,N,NONE,THERAPY PHARMACOLOGY (OTC OR RX) THERAPY NON-PHARMACOLOGY,REMOTELY,"RESOLVED, NO SEQUELAE",,,,,,,Y,2001,2001,11,13,
NIDA-CTN-0001,AE,01_023001,2001,14,ACTIVE,STUDY DAY 14,14,54,CONSTIPATION,CONSTIPATION,GASTROINTESTINAL DISORDERS,MODERATE,N,NONE,THERAPY PHARMACOLOGY (OTC OR RX) THERAPY NON-PHARMACOLOGY,REMOTELY,"RESOLVED, NO SEQUELAE",,,,,,,Y,2001,2001,14,14,
NIDA-CTN-0001,AE,01_023001,2001,28,ACTIVE,FOLLOW-UP 1,15,55,CONSTIPATION,CONSTIPATION,GASTROINTESTINAL DISORDERS,MODERATE,N,NONE,THERAPY PHARMACOLOGY (OTC OR RX) THERAPY NON-PHARMACOLOGY,POSSIBLY,"NOT YET RESOLVED, BUT IMPROVING",,,,,,,Y,2001,,28," ",
NIDA-CTN-0001,AE,01_023001,2001,4,ACTIVE,STUDY DAY 4,4,56,DIAPHORESIS,HYPERHIDROSIS,SKIN AND SUBCUTANEOUS TISSUE DISORDERS,MILD,N,NONE,THERAPY PHARMACOLOGY (OTC OR RX) THERAPY NON-PHARMACOLOGY,UNKNOWN,"RESOLVED, NO SEQUELAE",,,,,,,Y,2001,2001,4,7,
NIDA-CTN-0001,AE,01_023001,2001,6,ACTIVE,STUDY DAY 6,6,57,GUM PAIN,GINGIVAL PAIN,GASTROINTESTINAL DISORDERS,MODERATE,N,NONE,THERAPY PHARMACOLOGY (OTC OR RX) THERAPY NON-PHARMACOLOGY,REMOTELY,"RESOLVED, NO SEQUELAE",,,,,,,Y,2001,2001,6,8,
NIDA-CTN-0001,AE,01_023001,2001,4,ACTIVE,STUDY DAY 4,4,58,HEADACHE,HEADACHE NOS,NERVOUS SYSTEM DISORDERS,MODERATE,N,NONE,THERAPY PHARMACOLOGY (OTC OR RX) THERAPY NON-PHARMACOLOGY,REMOTELY,"RESOLVED, NO SEQUELAE",,,,,,,Y,2001,2001,4,4,
NIDA-CTN-0001,AE,01_023001,2001,4,ACTIVE,STUDY DAY 4,4,59,HEADACHE,HEADACHE,NERVOUS SYSTEM DISORDERS,MODERATE,N,NONE,THERAPY PHARMACOLOGY (OTC OR RX) THERAPY NON-PHARMACOLOGY,REMOTELY,"RESOLVED, NO SEQUELAE",,,,,,,Y,2001,2001,4,4,
NIDA-CTN-0001,AE,01_023001,2001,10,ACTIVE,STUDY DAY 10,10,60,HEADACHE,HEADACHE NOS,NERVOUS SYSTEM DISORDERS,MODERATE,N,NONE,THERAPY PHARMACOLOGY (OTC OR RX) THERAPY NON-PHARMACOLOGY,REMOTELY,"RESOLVED, NO SEQUELAE",,,,,,,Y,2001,2001,10,10,
NIDA-CTN-0001,AE,01_023001,2001,28,ACTIVE,FOLLOW-UP 1,15,61,HEADACHE,HEADACHE,NERVOUS SYSTEM DISORDERS,,N,,,,UNKNOWN,,,,,,,Y,2001,,17," ",
NIDA-CTN-0001,AE,01_023001,2001,6,ACTIVE,STUDY DAY 6,6,62,HYPERGLYCEMIA,HYPERGLYCAEMIA,METABOLISM AND NUTRITION DISORDERS,MODERATE,N,NONE,THERAPY PHARMACOLOGY (OTC OR RX) THERAPY NON-PHARMACOLOGY,UNKNOWN,"RESOLVED, NO SEQUELAE",,,,,,,Y,2001,2001,6,6,
NIDA-CTN-0001,AE,01_023001,2001,8,ACTIVE,STUDY DAY 8,8,63,HYPERGLYCEMIA,HYPERGLYCAEMIA NOS,METABOLISM AND NUTRITION DISORDERS,MODERATE,N,NONE,THERAPY PHARMACOLOGY (OTC OR RX) THERAPY NON-PHARMACOLOGY,REMOTELY,"RESOLVED, NO SEQUELAE",,,,,,,Y,2001,2001,8,10,
NIDA-CTN-0001,AE,01_023001,2001,11,ACTIVE,STUDY DAY 11,11,64,HYPERGLYCEMIA,HYPERGLYCAEMIA NOS,METABOLISM AND NUTRITION DISORDERS,MODERATE,N,NONE,THERAPY PHARMACOLOGY (OTC OR RX) THERAPY NON-PHARMACOLOGY,DEFINITELY NOT,"RESOLVED, NO SEQUELAE",,,,,,,Y,2001,2001,11,12,
NIDA-CTN-0001,AE,01_023001,2001,13,ACTIVE,STUDY DAY 13,13,65,HYPERGLYCEMIA,HYPERGLYCAEMIA NOS,METABOLISM AND NUTRITION DISORDERS,MODERATE,N,NONE,THERAPY PHARMACOLOGY (OTC OR RX) THERAPY NON-PHARMACOLOGY,DEFINITELY NOT,"RESOLVED, NO SEQUELAE",,,,,,,Y,2001,2001,13,14,
NIDA-CTN-0001,AE,01_023001,2001,6,ACTIVE,STUDY DAY 6,6,66,IRRITABLE,IRRITABILITY,PSYCHIATRIC DISORDERS,MODERATE,N,NONE,THERAPY PHARMACOLOGY (OTC OR RX) THERAPY NON-PHARMACOLOGY,REMOTELY,"RESOLVED, NO SEQUELAE",,,,,,,Y,2001,2001,6,6,
NIDA-CTN-0001,AE,01_023001,2001,13,ACTIVE,STUDY DAY 13,13,67,JUMPY AND JITTERY,FEELING JITTERY,GENERAL DISORDERS AND ADMINISTRATION SITE CONDITIONS,MODERATE,N,NONE,THERAPY PHARMACOLOGY (OTC OR RX) THERAPY NON-PHARMACOLOGY,REMOTELY,"RESOLVED, NO SEQUELAE",,,,,,,Y,2001,2001,13,13,
NIDA-CTN-0001,AE,01_023001,2001,2,ACTIVE,STUDY DAY 2,2,68,LOWER BACK PAIN,BACK PAIN,MUSCULOSKELETAL AND CONNECTIVE TISSUE DISORDERS,MODERATE,N,NONE,THERAPY PHARMACOLOGY (OTC OR RX) THERAPY NON-PHARMACOLOGY,REMOTELY,"RESOLVED, NO SEQUELAE",,,,,,,Y,2001,2001,2,8,
NIDA-CTN-0001,AE,01_023001,2001,14,ACTIVE,STUDY DAY 14,14,69,LOWER BACK PAIN,BACK PAIN,MUSCULOSKELETAL AND CONNECTIVE TISSUE DISORDERS,MODERATE,N,NONE,THERAPY PHARMACOLOGY (OTC OR RX) THERAPY NON-PHARMACOLOGY,REMOTELY,"RESOLVED, NO SEQUELAE",,,,,,,Y,2001,2001,14,14,
NIDA-CTN-0001,AE,01_023001,2001,6,ACTIVE,STUDY DAY 6,6,70,MOUTH SORE,ORAL PAIN,GASTROINTESTINAL DISORDERS,MODERATE,N,NONE,THERAPY PHARMACOLOGY (OTC OR RX),POSSIBLY,"RESOLVED, NO SEQUELAE",,,,,,,Y,2001,2001,6,6,
NIDA-CTN-0001,AE,01_023001,2001,4,ACTIVE,STUDY DAY 4,4,71,MUSCLE  ACHES,MYALGIA,MUSCULOSKELETAL AND CONNECTIVE TISSUE DISORDERS,MODERATE,N,NONE,THERAPY PHARMACOLOGY (OTC OR RX) THERAPY NON-PHARMACOLOGY,REMOTELY,"RESOLVED, NO SEQUELAE",,,,,,,Y,2001,2001,4,96,
NIDA-CTN-0001,AE,01_023001,2001,1,ACTIVE,STUDY DAY 1,1,72,MUSCLE ACHES,MYALGIA,MUSCULOSKELETAL AND CONNECTIVE TISSUE DISORDERS,MODERATE,N,NONE,THERAPY PHARMACOLOGY (OTC OR RX) THERAPY NON-PHARMACOLOGY,REMOTELY,"RESOLVED, NO SEQUELAE",,,,,,,Y,2001,2001,1,3,
NIDA-CTN-0001,AE,01_023001,2001,9,ACTIVE,STUDY DAY 9,9,73,MUSCLE ACHES,MYALGIA,MUSCULOSKELETAL AND CONNECTIVE TISSUE DISORDERS,MODERATE,N,NONE,THERAPY PHARMACOLOGY (OTC OR RX) THERAPY NON-PHARMACOLOGY,REMOTELY,"RESOLVED, NO SEQUELAE",,,,,,,Y,2001,2001,9,11,
NIDA-CTN-0001,AE,01_023001,2001,28,FOLLOW-UP 1,FOLLOW-UP 1,15,74,MUSCLE ACHES,MYALGIA,MUSCULOSKELETAL AND CONNECTIVE TISSUE DISORDERS,MODERATE,,NONE,THERAPY PHARMACOLOGY (OTC OR RX) THERAPY NON-PHARMACOLOGY,REMOTELY,"NOT YET RESOLVED, BUT IMPROVING",,,,,,,Y,2001,,28," ",
NIDA-CTN-0001,AE,01_023001,2001,13,ACTIVE,STUDY DAY 13,13,75,NASAL CONGESTION,NASAL CONGESTION,"RESPIRATORY, THORACIC AND MEDIASTINAL DISORDERS",MODERATE,N,NONE,THERAPY PHARMACOLOGY (OTC OR RX) THERAPY NON-PHARMACOLOGY,REMOTELY,"RESOLVED, NO SEQUELAE",,,,,,,Y,2001,2001,13,13,
NIDA-CTN-0001,AE,01_023001,2001,2,ACTIVE,STUDY DAY 2,2,76,NECK PAIN,NECK PAIN,MUSCULOSKELETAL AND CONNECTIVE TISSUE DISORDERS,MODERATE,N,NONE,THERAPY PHARMACOLOGY (OTC OR RX) THERAPY NON-PHARMACOLOGY,REMOTELY,"RESOLVED, NO SEQUELAE",,,,,,,Y,2001,2001,2,3,
NIDA-CTN-0001,AE,01_023001,2001,4,ACTIVE,STUDY DAY 4,4,77,NECK PAIN,NECK PAIN,MUSCULOSKELETAL AND CONNECTIVE TISSUE DISORDERS,MODERATE,N,NONE,THERAPY PHARMACOLOGY (OTC OR RX) THERAPY NON-PHARMACOLOGY,REMOTELY,"RESOLVED, NO SEQUELAE",,,,,,,Y,2001,2001,4,6,
NIDA-CTN-0001,AE,01_023001,2001,11,ACTIVE,STUDY DAY 11,11,78,NECK PAIN,NECK PAIN,MUSCULOSKELETAL AND CONNECTIVE TISSUE DISORDERS,MODERATE,N,NONE,THERAPY PHARMACOLOGY (OTC OR RX) THERAPY NON-PHARMACOLOGY,REMOTELY,"RESOLVED, NO SEQUELAE",,,,,,,Y,2001,2001,11,12,
NIDA-CTN-0001,AE,01_023001,2001,14,ACTIVE,STUDY DAY 14,14,79,NECK PAIN,NECK PAIN,MUSCULOSKELETAL AND CONNECTIVE TISSUE DISORDERS,MODERATE,N,NONE,THERAPY PHARMACOLOGY (OTC OR RX) THERAPY NON-PHARMACOLOGY,REMOTELY,"RESOLVED, NO SEQUELAE",,,,,,,Y,2001,2001,14,14,
NIDA-CTN-0001,AE,01_023001,2001,28,FOLLOW-UP 1,FOLLOW-UP 1,15,80,NECK PAIN,NECK PAIN,MUSCULOSKELETAL AND CONNECTIVE TISSUE DISORDERS,MODERATE,N,NONE,THERAPY PHARMACOLOGY (OTC OR RX) THERAPY NON-PHARMACOLOGY,REMOTELY,"NOT YET RESOLVED, BUT IMPROVING",,,,,,,Y,2001,,28," ",
NIDA-CTN-0001,AE,01_023001,2001,13,ACTIVE,STUDY DAY 13,13,81,RESTLESS,RESTLESSNESS,PSYCHIATRIC DISORDERS,MODERATE,N,NONE,THERAPY PHARMACOLOGY (OTC OR RX) THERAPY NON-PHARMACOLOGY,REMOTELY,"RESOLVED, NO SEQUELAE",,,,,,,Y,2001,2001,13,13,
NIDA-CTN-0001,AE,01_023001,2001,1,ACTIVE,STUDY DAY 1,1,82,RESTLESSNESS,RESTLESSNESS,PSYCHIATRIC DISORDERS,,,,,,,,,,,,,Y,2001,2001,1,3,
NIDA-CTN-0001,AE,01_023001,2001,4,ACTIVE,STUDY DAY 4,4,83,SHAKY,NERVOUSNESS,PSYCHIATRIC DISORDERS,,N,NONE,THERAPY PHARMACOLOGY (OTC OR RX) THERAPY NON-PHARMACOLOGY,REMOTELY,"RESOLVED, NO SEQUELAE",,,,,,,Y,2001,2001,4,4,
NIDA-CTN-0001,AE,01_023001,2001,10,ACTIVE,STUDY DAY 10,10,84,SPASMS,MUSCLE SPASMS,MUSCULOSKELETAL AND CONNECTIVE TISSUE DISORDERS,MODERATE,N,NONE,THERAPY PHARMACOLOGY (OTC OR RX) THERAPY NON-PHARMACOLOGY,REMOTELY,"RESOLVED, NO SEQUELAE",,,,,,,Y,2001,2001,10,11,
NIDA-CTN-0001,AE,01_023001,2001,13,ACTIVE,STUDY DAY 13,13,85,SWEATS,SWEATING INCREASED,SKIN AND SUBCUTANEOUS TISSUE DISORDERS,MODERATE,N,NONE,THERAPY PHARMACOLOGY (OTC OR RX) THERAPY NON-PHARMACOLOGY,POSSIBLY,"RESOLVED, NO SEQUELAE",,,,,,,Y,2001,2001,13,13,
NIDA-CTN-0001,AE,01_023001,2001,2,ACTIVE,STUDY DAY 2,2,86,TIRED,FATIGUE,GENERAL DISORDERS AND ADMINISTRATION SITE CONDITIONS,MODERATE,N,NONE,THERAPY PHARMACOLOGY (OTC OR RX) THERAPY NON-PHARMACOLOGY,REMOTELY,"RESOLVED, NO SEQUELAE",,,,,,,Y,2002,2002,367,368,
NIDA-CTN-0001,AE,01_023001,2001,4,ACTIVE,STUDY DAY 4,4,87,TREMOR,TREMOR,NERVOUS SYSTEM DISORDERS,MODERATE,N,NONE,THERAPY PHARMACOLOGY (OTC OR RX) THERAPY NON-PHARMACOLOGY,REMOTELY,"RESOLVED, NO SEQUELAE",,,,,,,Y,2001,2001,4,5,
NIDA-CTN-0001,AE,01_023001,2001,6,ACTIVE,STUDY DAY 6,6,88,TREMORS,TREMOR,NERVOUS SYSTEM DISORDERS,MODERATE,N,NONE,THERAPY PHARMACOLOGY (OTC OR RX) THERAPY NON-PHARMACOLOGY,REMOTELY,"RESOLVED, NO SEQUELAE",,,,,,,Y,2001,2001,6,7,
NIDA-CTN-0001,AE,01_023001,2001,9,ACTIVE,STUDY DAY 9,9,89,TREMORS,TREMOR,NERVOUS SYSTEM DISORDERS,MODERATE,N,NONE,THERAPY PHARMACOLOGY (OTC OR RX) THERAPY NON-PHARMACOLOGY,REMOTELY,"RESOLVED, NO SEQUELAE",,,,,,,Y,2001,2001,9,9,
NIDA-CTN-0001,AE,01_023001,2001,10,ACTIVE,STUDY DAY 10,10,90,UPPER BACK PAIN,BACK PAIN,MUSCULOSKELETAL AND CONNECTIVE TISSUE DISORDERS,MODERATE,N,NONE,THERAPY PHARMACOLOGY (OTC OR RX) THERAPY NON-PHARMACOLOGY,REMOTELY,"RESOLVED, NO SEQUELAE",,,,,,,Y,2001,2001,10,13,
NIDA-CTN-0001,AE,01_023001,2001,10,ACTIVE,STUDY DAY 10,10,91,WEAK MUSCLES,MUSCLE WEAKNESS NOS,MUSCULOSKELETAL AND CONNECTIVE TISSUE DISORDERS,MODERATE,N,NONE,THERAPY PHARMACOLOGY (OTC OR RX) THERAPY NON-PHARMACOLOGY,REMOTELY,"RESOLVED, NO SEQUELAE",,,,,,,Y,2001,2001,10,10,
NIDA-CTN-0001,AE,01_023438,2001,4,ACTIVE,STUDY DAY 4,4,1490,ANXIETY,ANXIETY,PSYCHIATRIC DISORDERS,MILD,N,NONE,THERAPY PHARMACOLOGY (OTC OR RX),UNKNOWN,"RESOLVED, NO SEQUELAE",,,,,,,Y,2001,2001,4,5,
NIDA-CTN-0001,AE,01_023438,2001,12,ACTIVE,STUDY DAY 12,12,1491,BLURRED VISION,VISION BLURRED,EYE DISORDERS,MODERATE,N,NONE,THERAPY PHARMACOLOGY (OTC OR RX),POSSIBLY,"RESOLVED, NO SEQUELAE",,,,,,,Y,2001,2001,11,11,
NIDA-CTN-0001,AE,01_023438,2001,2,ACTIVE,STUDY DAY 2,2,1492,DIZZINESS,DIZZINESS,NERVOUS SYSTEM DISORDERS,MILD,N,NONE,NONE,UNKNOWN,"RESOLVED, NO SEQUELAE",,,,,,,,2001,2001,2,2,
NIDA-CTN-0001,AE,01_023438,2001,9,ACTIVE,STUDY DAY 9,9,1493,DIZZINESS,DIZZINESS,NERVOUS SYSTEM DISORDERS,MILD,N,NONE,NONE,POSSIBLY,"RESOLVED, NO SEQUELAE",,,,,,,,2001,2001,8,8,
NIDA-CTN-0001,AE,01_023438,2001,12,ACTIVE,STUDY DAY 12,12,1494,DIZZINESS,DIZZINESS,NERVOUS SYSTEM DISORDERS,MODERATE,N,NONE,THERAPY PHARMACOLOGY (OTC OR RX),POSSIBLY,"RESOLVED, NO SEQUELAE",,,,,,,Y,2001,2001,11,11,
NIDA-CTN-0001,AE,01_023438,2001,4,ACTIVE,STUDY DAY 4,4,1495,DROWSINESS,SOMNOLENCE,NERVOUS SYSTEM DISORDERS,MILD,N,NONE,NONE,UNKNOWN,"NOT YET RESOLVED, BUT IMPROVING",,,,,,,,2001,,4," ",
NIDA-CTN-0001,AE,01_023438,2001,5,ACTIVE,STUDY DAY 5,5,1496,DROWSINESS,SOMNOLENCE,NERVOUS SYSTEM DISORDERS,,N,NONE,NONE,UNKNOWN,"RESOLVED, NO SEQUELAE",,,,,,,,2001,2001,4,4,
NIDA-CTN-0001,AE,01_023438,2001,6,ACTIVE,STUDY DAY 6,6,1497,DROWSINESS,SOMNOLENCE,NERVOUS SYSTEM DISORDERS,MILD,N,NONE,NONE,UNKNOWN,"NOT YET RESOLVED, NO CHANGE",,,,,,,,2001,,5," ",
NIDA-CTN-0001,AE,01_023438,2001,7,ACTIVE,STUDY DAY 7,7,1498,DROWSINESS,SOMNOLENCE,NERVOUS SYSTEM DISORDERS,MILD,N,NONE,NONE,UNKNOWN,"RESOLVED, NO SEQUELAE",,,,,,,,2001,2001,5,6,
NIDA-CTN-0001,AE,01_023438,2001,8,ACTIVE,STUDY DAY 8,8,1499,DROWSINESS,SOMNOLENCE,NERVOUS SYSTEM DISORDERS,MILD,N,NONE,NONE,UNKNOWN,"RESOLVED, NO SEQUELAE",,,,,,,,2001,2001,8,8,
NIDA-CTN-0001,AE,01_023438,2001,9,ACTIVE,STUDY DAY 9,9,1500,DROWSINESS,SOMNOLENCE,NERVOUS SYSTEM DISORDERS,MILD,N,NONE,NONE,UNKNOWN,"NOT YET RESOLVED, NO CHANGE",,,,,,,,2001,,9," ",
NIDA-CTN-0001,AE,01_023438,2001,10,ACTIVE,STUDY DAY 10,10,1501,DROWSINESS,SOMNOLENCE,NERVOUS SYSTEM DISORDERS,MILD,N,NONE,NONE,UNKNOWN,"RESOLVED, NO SEQUELAE",,,,,,,,2001,2001,9,10,
NIDA-CTN-0001,AE,01_023438,2001,11,ACTIVE,STUDY DAY 11,11,1502,DROWSINESS,SOMNOLENCE,NERVOUS SYSTEM DISORDERS,MILD,N,NONE,NONE,UNKNOWN,"NOT YET RESOLVED, NO CHANGE",,,,,,,,2001,,10," ",
NIDA-CTN-0001,AE,01_023438,2001,12,ACTIVE,STUDY DAY 12,12,1503,DROWSINESS,SOMNOLENCE,NERVOUS SYSTEM DISORDERS,MILD,N,NONE,NONE,UNKNOWN,"RESOLVED, NO SEQUELAE",,,,,,,,2001,2001,10,11,
NIDA-CTN-0001,AE,01_023438,2001,5,ACTIVE,STUDY DAY 5,5,1504,HEADACHE,HEADACHE,NERVOUS SYSTEM DISORDERS,MILD,N,NONE,THERAPY PHARMACOLOGY (OTC OR RX),UNKNOWN,"RESOLVED, NO SEQUELAE",,,,,,,Y,2001,2001,4,4,
NIDA-CTN-0001,AE,01_023438,2001,8,ACTIVE,STUDY DAY 8,8,1505,HEADACHE,HEADACHE,NERVOUS SYSTEM DISORDERS,,N,NONE,THERAPY PHARMACOLOGY (OTC OR RX),UNKNOWN,"RESOLVED, NO SEQUELAE",,,,,,,Y,2001,2001,7,7,
NIDA-CTN-0001,AE,01_023438,2001,8,ACTIVE,STUDY DAY 8,8,1506,HEADACHE,HEADACHE,NERVOUS SYSTEM DISORDERS,,N,NONE,NONE,UNKNOWN,"RESOLVED, NO SEQUELAE",,,,,,,Y,2001,2001,8,8,
NIDA-CTN-0001,AE,01_023438,2001,9,ACTIVE,STUDY DAY 9,9,1507,HEADACHE,HEADACHE,NERVOUS SYSTEM DISORDERS,MILD,N,NONE,NONE,UNKNOWN,"RESOLVED, NO SEQUELAE",,,,,,,,2001,2001,8,8,
NIDA-CTN-0001,AE,01_023438,2001,12,ACTIVE,STUDY DAY 12,12,1508,HEADACHE,HEADACHE,NERVOUS SYSTEM DISORDERS,MODERATE,N,NONE,THERAPY PHARMACOLOGY (OTC OR RX),POSSIBLY,"RESOLVED, NO SEQUELAE",,,,,,,Y,2001,2001,11,11,
NIDA-CTN-0001,AE,01_023438,2001,3,ACTIVE,STUDY DAY 3,3,1509,INSOMNIA,INSOMNIA,PSYCHIATRIC DISORDERS,MILD,N,NONE,THERAPY PHARMACOLOGY (OTC OR RX),UNKNOWN,"NOT YET RESOLVED, NO CHANGE",,,,,,,Y,2001,,2," ",
NIDA-CTN-0001,AE,01_023438,2001,4,ACTIVE,STUDY DAY 4,4,1510,INSOMNIA,INSOMNIA,PSYCHIATRIC DISORDERS,MILD,N,NONE,THERAPY PHARMACOLOGY (OTC OR RX),UNKNOWN,"NOT YET RESOLVED, NO CHANGE",,,,,,,Y,2001,,2," ",
NIDA-CTN-0001,AE,01_023438,2001,5,ACTIVE,STUDY DAY 5,5,1511,INSOMNIA,INSOMNIA,PSYCHIATRIC DISORDERS,MILD,N,NONE,THERAPY PHARMACOLOGY (OTC OR RX),UNKNOWN,"NOT YET RESOLVED, BUT IMPROVING",,,,,,,Y,2001,,2," ",
NIDA-CTN-0001,AE,01_023438,2001,6,ACTIVE,STUDY DAY 6,6,1512,INSOMNIA,INSOMNIA,PSYCHIATRIC DISORDERS,MILD,N,NONE,THERAPY PHARMACOLOGY (OTC OR RX),UNKNOWN,"NOT YET RESOLVED, NO CHANGE",,,,,,,Y,2001,,2," ",
NIDA-CTN-0001,AE,01_023438,2001,7,ACTIVE,STUDY DAY 7,7,1513,INSOMNIA,INSOMNIA,PSYCHIATRIC DISORDERS,MILD,N,NONE,THERAPY PHARMACOLOGY (OTC OR RX),UNKNOWN,"NOT YET RESOLVED, NO CHANGE",,,,,,,Y,2001,,2," ",
NIDA-CTN-0001,AE,01_023438,2001,8,ACTIVE,STUDY DAY 8,8,1514,INSOMNIA,INSOMNIA,PSYCHIATRIC DISORDERS,MODERATE,N,NONE,THERAPY PHARMACOLOGY (OTC OR RX),UNKNOWN,"RESOLVED, NO SEQUELAE",,,,,,,Y,2001,2001,7,8,
NIDA-CTN-0001,AE,01_023438,2001,2,ACTIVE,STUDY DAY 2,2,1515,JOINT ACHE,ARTHRALGIA,MUSCULOSKELETAL AND CONNECTIVE TISSUE DISORDERS,MILD,N,NONE,THERAPY PHARMACOLOGY (OTC OR RX),UNKNOWN,"NOT YET RESOLVED, BUT IMPROVING",,,,,,,Y,2001,,1," ",
NIDA-CTN-0001,AE,01_023438,2001,3,ACTIVE,STUDY DAY 3,3,1516,JOINT ACHE,ARTHRALGIA,MUSCULOSKELETAL AND CONNECTIVE TISSUE DISORDERS,MILD,N,NONE,THERAPY PHARMACOLOGY (OTC OR RX),UNKNOWN,"NOT YET RESOLVED, BUT IMPROVING",,,,,,,Y,2001,,1," ",
NIDA-CTN-0001,AE,01_023438,2001,4,ACTIVE,STUDY DAY 4,4,1517,JOINT ACHE,ARTHRALGIA,MUSCULOSKELETAL AND CONNECTIVE TISSUE DISORDERS,MILD,N,NONE,THERAPY PHARMACOLOGY (OTC OR RX),UNKNOWN,"NOT YET RESOLVED, BUT IMPROVING",,,,,,,Y,2001,,1," ",
NIDA-CTN-0001,AE,01_023438,2001,5,ACTIVE,STUDY DAY 5,5,1518,JOINT ACHE,ARTHRALGIA,MUSCULOSKELETAL AND CONNECTIVE TISSUE DISORDERS,MILD,N,NONE,THERAPY PHARMACOLOGY (OTC OR RX),UNKNOWN,"NOT YET RESOLVED, BUT IMPROVING",,,,,,,Y,2001,,1," ",
NIDA-CTN-0001,AE,01_023438,2001,6,ACTIVE,STUDY DAY 6,6,1519,JOINT ACHE,ARTHRALGIA,MUSCULOSKELETAL AND CONNECTIVE TISSUE DISORDERS,MILD,N,NONE,THERAPY PHARMACOLOGY (OTC OR RX),UNKNOWN,"RESOLVED, NO SEQUELAE",,,,,,,Y,2001,2001,1,6,
NIDA-CTN-0001,AE,01_023438,2001,9,ACTIVE,STUDY DAY 9,9,1520,NAUSEA,NAUSEA,GASTROINTESTINAL DISORDERS,MILD,N,NONE,NONE,POSSIBLY,"RESOLVED, NO SEQUELAE",,,,,,,,2001,2001,8,8,
NIDA-CTN-0001,AE,01_023982,2001,8,ACTIVE,STUDY DAY 8,8,678,ABDOMINAL PAIN,ABDOMINAL PAIN NOS,GASTROINTESTINAL DISORDERS,SEVERE,N,NONE,THERAPY PHARMACOLOGY (OTC OR RX),POSSIBLY,"RESOLVED, NO SEQUELAE",,,,,,,Y,2001,2001,7,8,
NIDA-CTN-0001,AE,01_023982,2001,8,ACTIVE,STUDY DAY 8,8,679,CONSTIPATION,CONSTIPATION,GASTROINTESTINAL DISORDERS,SEVERE,N,NONE,THERAPY PHARMACOLOGY (OTC OR RX),POSSIBLY,"RESOLVED, NO SEQUELAE",,,,,,,Y,2001,2001,7,8,
NIDA-CTN-0001,AE,01_023982,2001,13,ACTIVE,STUDY DAY 13,13,680,CONSTIPATION,CONSTIPATION,GASTROINTESTINAL DISORDERS,MILD,N,NONE,THERAPY PHARMACOLOGY (OTC OR RX),POSSIBLY,"RESOLVED, NO SEQUELAE",,,,,,,Y,2001,2001,12,12,
NIDA-CTN-0001,AE,01_023982,2001,4,ACTIVE,STUDY DAY 4,4,681,HEADACHE,HEADACHE NOS,NERVOUS SYSTEM DISORDERS,MILD,N,NONE,THERAPY PHARMACOLOGY (OTC OR RX),POSSIBLY,"RESOLVED, NO SEQUELAE",,,,,,,Y,2001,2001,4,4,
NIDA-CTN-0001,AE,01_023982,2001,5,ACTIVE,STUDY DAY 5,5,682,HEADACHE,HEADACHE NOS,NERVOUS SYSTEM DISORDERS,MILD,N,NONE,THERAPY PHARMACOLOGY (OTC OR RX),POSSIBLY,"RESOLVED, NO SEQUELAE",,,,,,,Y,2001,2001,4,8,
NIDA-CTN-0001,AE,01_023982,2001,13,ACTIVE,STUDY DAY 13,13,683,HEADACHE,HEADACHE NOS,NERVOUS SYSTEM DISORDERS,MILD,N,NONE,THERAPY PHARMACOLOGY (OTC OR RX),POSSIBLY,"RESOLVED, NO SEQUELAE",,,,,,,Y,2001,2001,12,13,
NIDA-CTN-0001,AE,01_023982,2001,2,ACTIVE,STUDY DAY 2,2,684,INSOMNIA,INSOMNIA,PSYCHIATRIC DISORDERS,MILD,N,NONE,THERAPY PHARMACOLOGY (OTC OR RX),POSSIBLY,"RESOLVED, NO SEQUELAE",,,,,,,Y,2001,2001,1,8,
NIDA-CTN-0001,AE,01_023982,2001,9,ACTIVE,STUDY DAY 9,9,685,INSOMNIA,INSOMNIA,PSYCHIATRIC DISORDERS,MILD,N,NONE,THERAPY PHARMACOLOGY (OTC OR RX),POSSIBLY,"RESOLVED, NO SEQUELAE",,,,,,,Y,2001,2001,8,14,
NIDA-CTN-0001,AE,01_023982,2001,1,ACTIVE,STUDY DAY 1,1,686,JOINT PAIN,ARTHRALGIA,MUSCULOSKELETAL AND CONNECTIVE TISSUE DISORDERS,MODERATE,N,NONE,NONE,REMOTELY,"RESOLVED, NO SEQUELAE",,,,,,,,2001,2001,1,2,
NIDA-CTN-0001,AE,01_023982,2001,4,ACTIVE,STUDY DAY 4,4,687,JOINT PAIN,ARTHRALGIA,MUSCULOSKELETAL AND CONNECTIVE TISSUE DISORDERS,MILD,N,NONE,THERAPY PHARMACOLOGY (OTC OR RX),POSSIBLY,"RESOLVED, NO SEQUELAE",,,,,,,Y,2001,2001,3,4,
NIDA-CTN-0001,AE,01_023982,2001,11,ACTIVE,STUDY DAY 11,11,688,LEG PAIN,PAIN IN LIMB,MUSCULOSKELETAL AND CONNECTIVE TISSUE DISORDERS,MILD,N,NONE,NONE,REMOTELY,"RESOLVED, NO SEQUELAE",,,,,,,,2001,2001,11,12,
NIDA-CTN-0001,AE,01_023982,2001,1,ACTIVE,STUDY DAY 1,1,689,UPSET STOMACH,DYSPEPSIA,GASTROINTESTINAL DISORDERS,MODERATE,N,NONE,NONE,REMOTELY,"RESOLVED, NO SEQUELAE",,,,,,,,2001,2001,1,2,
NIDA-CTN-0001,AE,01_023982,2001,7,ACTIVE,STUDY DAY 7,7,690,UPSET STOMACH,DYSPEPSIA,GASTROINTESTINAL DISORDERS,MODERATE,N,NONE,THERAPY PHARMACOLOGY (OTC OR RX),POSSIBLY,"RESOLVED, NO SEQUELAE",,,,,,,Y,2001,2001,6,8,
NIDA-CTN-0001,AE,01_023982,2001,1,ACTIVE,STUDY DAY 1,1,691,WATERY EYES,LACRIMATION INCREASED,EYE DISORDERS,MODERATE,N,NONE,NONE,REMOTELY,"RESOLVED, NO SEQUELAE",,,,,,,,2001,2001,1,2,
NIDA-CTN-0001,AE,01_024957,2001,2,ACTIVE,STUDY DAY 2,2,1743,BACK PAIN,BACK PAIN,MUSCULOSKELETAL AND CONNECTIVE TISSUE DISORDERS,MODERATE,N,NONE,THERAPY PHARMACOLOGY (OTC OR RX),DEFINITELY NOT,"NOT YET RESOLVED, BUT IMPROVING",,,,,,,Y,2001,,1," ",
NIDA-CTN-0001,AE,01_024957,2001,3,ACTIVE,STUDY DAY 3,3,1744,BACK PAIN,BACK PAIN,MUSCULOSKELETAL AND CONNECTIVE TISSUE DISORDERS,MODERATE,N,NONE,THERAPY PHARMACOLOGY (OTC OR RX),DEFINITELY NOT,"NOT YET RESOLVED, BUT IMPROVING",,,,,,,Y,2001,,1," ",
NIDA-CTN-0001,AE,01_024957,2001,4,ACTIVE,STUDY DAY 4,4,1745,BACK PAIN,BACK PAIN,MUSCULOSKELETAL AND CONNECTIVE TISSUE DISORDERS,MODERATE,N,NONE,THERAPY PHARMACOLOGY (OTC OR RX),DEFINITELY NOT,"NOT YET RESOLVED, WORSENING",,,,,,,Y,2001,,1," ",
NIDA-CTN-0001,AE,01_024957,2001,5,ACTIVE,STUDY DAY 5,5,1746,BACK PAIN,BACK PAIN,MUSCULOSKELETAL AND CONNECTIVE TISSUE DISORDERS,MODERATE,N,NONE,THERAPY PHARMACOLOGY (OTC OR RX),DEFINITELY NOT,"RESOLVED, NO SEQUELAE",,,,,,,Y,2001,2001,1,5,
NIDA-CTN-0001,AE,01_024957,2001,6,ACTIVE,STUDY DAY 6,6,1747,BACK PAIN,BACK PAIN,MUSCULOSKELETAL AND CONNECTIVE TISSUE DISORDERS,MODERATE,N,NONE,THERAPY PHARMACOLOGY (OTC OR RX),DEFINITELY NOT,"NOT YET RESOLVED, NO CHANGE",,,,,,,Y,2001,,5," ",
NIDA-CTN-0001,AE,01_024957,2001,7,ACTIVE,STUDY DAY 7,7,1748,BACK PAIN,BACK PAIN,MUSCULOSKELETAL AND CONNECTIVE TISSUE DISORDERS,MODERATE,N,NONE,THERAPY PHARMACOLOGY (OTC OR RX),DEFINITELY NOT,"NOT YET RESOLVED, NO CHANGE",,,,,,,Y,2001,,5," ",
NIDA-CTN-0001,AE,01_024957,2001,8,ACTIVE,STUDY DAY 8,8,1749,BACK PAIN,BACK PAIN,MUSCULOSKELETAL AND CONNECTIVE TISSUE DISORDERS,MODERATE,N,NONE,THERAPY PHARMACOLOGY (OTC OR RX),DEFINITELY NOT,"RESOLVED, NO SEQUELAE",,,,,,,Y,2001,2001,5,8,
NIDA-CTN-0001,AE,01_024957,2001,9,ACTIVE,STUDY DAY 9,9,1750,BACK PAIN,BACK PAIN,MUSCULOSKELETAL AND CONNECTIVE TISSUE DISORDERS,MODERATE,N,NONE,THERAPY PHARMACOLOGY (OTC OR RX),DEFINITELY NOT,"NOT YET RESOLVED, BUT IMPROVING",,,,,,,Y,2001,,9," ",
NIDA-CTN-0001,AE,01_024957,2001,10,ACTIVE,STUDY DAY 10,10,1751,BACK PAIN,BACK PAIN,MUSCULOSKELETAL AND CONNECTIVE TISSUE DISORDERS,MODERATE,N,NONE,THERAPY PHARMACOLOGY (OTC OR RX),DEFINITELY NOT,"NOT YET RESOLVED, BUT IMPROVING",,,,,,,Y,2001,,9," ",
NIDA-CTN-0001,AE,01_024957,2001,11,ACTIVE,STUDY DAY 11,11,1752,BACK PAIN,BACK PAIN,MUSCULOSKELETAL AND CONNECTIVE TISSUE DISORDERS,MODERATE,N,NONE,THERAPY PHARMACOLOGY (OTC OR RX),DEFINITELY NOT,"NOT YET RESOLVED, NO CHANGE",,,,,,,Y,2001,,9," ",
NIDA-CTN-0001,AE,01_024957,2001,12,ACTIVE,STUDY DAY 12,12,1753,BACK PAIN,BACK PAIN,MUSCULOSKELETAL AND CONNECTIVE TISSUE DISORDERS,MODERATE,N,NONE,THERAPY PHARMACOLOGY (OTC OR RX),DEFINITELY NOT,"NOT YET RESOLVED, NO CHANGE",,,,,,,Y,2001,,9," ",
NIDA-CTN-0001,AE,01_024957,2001,13,ACTIVE,STUDY DAY 13,13,1754,BACK PAIN,BACK PAIN,MUSCULOSKELETAL AND CONNECTIVE TISSUE DISORDERS,MODERATE,N,NONE,THERAPY PHARMACOLOGY (OTC OR RX),DEFINITELY NOT,"NOT YET RESOLVED, NO CHANGE",,,,,,,Y,2001,,9," ",
NIDA-CTN-0001,AE,01_024957,2001,14,ACTIVE,STUDY DAY 14,14,1755,BACK PAIN,BACK PAIN,MUSCULOSKELETAL AND CONNECTIVE TISSUE DISORDERS,MODERATE,N,NONE,THERAPY PHARMACOLOGY (OTC OR RX),DEFINITELY NOT,"NOT YET RESOLVED, NO CHANGE",,,,,,,Y,2001,,9," ",
NIDA-CTN-0001,AE,01_024957,2001,8,ACTIVE,STUDY DAY 8,8,1756,CHILLS,RIGORS,GENERAL DISORDERS AND ADMINISTRATION SITE CONDITIONS,MILD,N,NONE,NONE,DEFINITELY NOT,"NOT YET RESOLVED, NO CHANGE",,,,,,,Y,2001,,7," ",
NIDA-CTN-0001,AE,01_024957,2001,9,ACTIVE,STUDY DAY 9,9,1757,CHILLS,RIGORS,GENERAL DISORDERS AND ADMINISTRATION SITE CONDITIONS,MILD,N,NONE,NONE,DEFINITELY NOT,"RESOLVED, NO SEQUELAE",,,,,,,,2001,2001,7,9,
NIDA-CTN-0001,AE,01_024957,2001,5,ACTIVE,STUDY DAY 5,5,1758,COUGH,COUGH,"RESPIRATORY, THORACIC AND MEDIASTINAL DISORDERS",MILD,N,NONE,NONE,DEFINITELY NOT,"NOT YET RESOLVED, WORSENING",,,,,,,,2001,,5," ",
NIDA-CTN-0001,AE,01_024957,2001,6,ACTIVE,STUDY DAY 6,6,1759,COUGH,COUGH,"RESPIRATORY, THORACIC AND MEDIASTINAL DISORDERS",MILD,N,NONE,THERAPY PHARMACOLOGY (OTC OR RX),DEFINITELY NOT,"NOT YET RESOLVED, BUT IMPROVING",,,,,,,Y,2001,2001,5,5,
NIDA-CTN-0001,AE,01_024957,2001,6,ACTIVE,STUDY DAY 6,6,1760,COUGH,COUGH,"RESPIRATORY, THORACIC AND MEDIASTINAL DISORDERS",MODERATE,N,NONE,THERAPY PHARMACOLOGY (OTC OR RX),DEFINITELY NOT,"NOT YET RESOLVED, WORSENING",,,,,,,Y,2001,,5," ",
NIDA-CTN-0001,AE,01_024957,2001,7,ACTIVE,STUDY DAY 7,7,1761,COUGH,COUGH,"RESPIRATORY, THORACIC AND MEDIASTINAL DISORDERS",MODERATE,N,NONE,THERAPY PHARMACOLOGY (OTC OR RX),DEFINITELY NOT,"NOT YET RESOLVED, WORSENING",,,,,,,Y,2001,2001,5,7,
NIDA-CTN-0001,AE,01_024957,2001,8,ACTIVE,STUDY DAY 8,8,1762,COUGH,COUGH,"RESPIRATORY, THORACIC AND MEDIASTINAL DISORDERS",MODERATE,N,NONE,THERAPY PHARMACOLOGY (OTC OR RX),REMOTELY,"NOT YET RESOLVED, NO CHANGE",,,,,,,Y,2001,,8," ",
NIDA-CTN-0001,AE,01_024957,2001,9,ACTIVE,STUDY DAY 9,9,1763,COUGH,COUGH,"RESPIRATORY, THORACIC AND MEDIASTINAL DISORDERS",MODERATE,N,NONE,THERAPY PHARMACOLOGY (OTC OR RX),DEFINITELY NOT,"NOT YET RESOLVED, BUT IMPROVING",,,,,,,Y,2001,,8," ",
NIDA-CTN-0001,AE,01_024957,2001,10,ACTIVE,STUDY DAY 10,10,1764,COUGH,COUGH,"RESPIRATORY, THORACIC AND MEDIASTINAL DISORDERS",MODERATE,N,NONE,THERAPY PHARMACOLOGY (OTC OR RX),DEFINITELY NOT,"NOT YET RESOLVED, BUT IMPROVING",,,,,,,Y,2001,,8," ",
NIDA-CTN-0001,AE,01_024957,2001,11,ACTIVE,STUDY DAY 11,11,1765,COUGH,COUGH,"RESPIRATORY, THORACIC AND MEDIASTINAL DISORDERS",MODERATE,N,NONE,THERAPY PHARMACOLOGY (OTC OR RX),DEFINITELY NOT,"NOT YET RESOLVED, WORSENING",,,,,,,Y,2001,2001,8,10,
NIDA-CTN-0001,AE,01_024957,2001,12,ACTIVE,STUDY DAY 12,12,1766,COUGH,COUGH,"RESPIRATORY, THORACIC AND MEDIASTINAL DISORDERS",MODERATE,N,NONE,THERAPY PHARMACOLOGY (OTC OR RX),DEFINITELY NOT,"NOT YET RESOLVED, NO CHANGE",,,,,,,Y,2001,,8," ",
NIDA-CTN-0001,AE,01_024957,2001,13,ACTIVE,STUDY DAY 13,13,1767,COUGH,COUGH,"RESPIRATORY, THORACIC AND MEDIASTINAL DISORDERS",MODERATE,N,NONE,THERAPY PHARMACOLOGY (OTC OR RX),DEFINITELY NOT,"NOT YET RESOLVED, NO CHANGE",,,,,,,Y,2001,,8," ",
NIDA-CTN-0001,AE,01_024957,2001,14,ACTIVE,STUDY DAY 14,14,1768,COUGH,COUGH,"RESPIRATORY, THORACIC AND MEDIASTINAL DISORDERS",MODERATE,N,NONE,THERAPY PHARMACOLOGY (OTC OR RX),DEFINITELY NOT,"NOT YET RESOLVED, BUT IMPROVING",,,,,,,Y,2001,2001,8,14,
NIDA-CTN-0001,AE,01_024957,2001,4,ACTIVE,STUDY DAY 4,4,1769,DIZZINESS,DIZZINESS,NERVOUS SYSTEM DISORDERS,MILD,N,NONE,NONE,PROBABLY,"RESOLVED, NO SEQUELAE",,,,,,,,2001,2001,4,4,
NIDA-CTN-0001,AE,01_024957,2001,8,ACTIVE,STUDY DAY 8,8,1770,FEVER,PYREXIA,GENERAL DISORDERS AND ADMINISTRATION SITE CONDITIONS,MODERATE,N,NONE,THERAPY PHARMACOLOGY (OTC OR RX),DEFINITELY NOT,"NOT YET RESOLVED, WORSENING",,,,,,,Y,2001,,7," ",
NIDA-CTN-0001,AE,01_024957,2001,9,ACTIVE,STUDY DAY 9,9,1771,FEVER,PYREXIA,GENERAL DISORDERS AND ADMINISTRATION SITE CONDITIONS,MODERATE,N,NONE,NONE,DEFINITELY NOT,"RESOLVED, NO SEQUELAE",,,,,,,Y,2001,2001,7,8,
NIDA-CTN-0001,AE,01_024957,2001,7,ACTIVE,STUDY DAY 7,7,1772,INSOMNIA,INSOMNIA,PSYCHIATRIC DISORDERS,MODERATE,N,NONE,THERAPY PHARMACOLOGY (OTC OR RX),UNKNOWN,"NOT YET RESOLVED, BUT IMPROVING",,,,,,,Y,2001,,1," ",
NIDA-CTN-0001,AE,01_024957,2001,8,ACTIVE,STUDY DAY 8,8,1773,INSOMNIA,INSOMNIA,PSYCHIATRIC DISORDERS,MODERATE,N,NONE,THERAPY PHARMACOLOGY (OTC OR RX),REMOTELY,"NOT YET RESOLVED, WORSENING",,,,,,,Y,2001,,1," ",
NIDA-CTN-0001,AE,01_024957,2001,9,ACTIVE,STUDY DAY 9,9,1774,INSOMNIA,INSOMNIA,PSYCHIATRIC DISORDERS,MODERATE,N,NONE,THERAPY PHARMACOLOGY (OTC OR RX),REMOTELY,"NOT YET RESOLVED, NO CHANGE",,,,,,,Y,2001,,1," ",
NIDA-CTN-0001,AE,01_024957,2001,10,ACTIVE,STUDY DAY 10,10,1775,INSOMNIA,INSOMNIA,PSYCHIATRIC DISORDERS,MODERATE,N,NONE,THERAPY PHARMACOLOGY (OTC OR RX),REMOTELY,"NOT YET RESOLVED, BUT IMPROVING",,,,,,,Y,2001,,1," ",
NIDA-CTN-0001,AE,01_024957,2001,11,ACTIVE,STUDY DAY 11,11,1776,INSOMNIA,INSOMNIA,PSYCHIATRIC DISORDERS,MODERATE,N,NONE,THERAPY PHARMACOLOGY (OTC OR RX),REMOTELY,"NOT YET RESOLVED, BUT IMPROVING",,,,,,,Y,2001,,1," ",
NIDA-CTN-0001,AE,01_024957,2001,12,ACTIVE,STUDY DAY 12,12,1777,INSOMNIA,INSOMNIA,PSYCHIATRIC DISORDERS,MODERATE,N,NONE,THERAPY PHARMACOLOGY (OTC OR RX),REMOTELY,"NOT YET RESOLVED, NO CHANGE",,,,,,,Y,2001,,1," ",
NIDA-CTN-0001,AE,01_024957,2001,13,ACTIVE,STUDY DAY 13,13,1778,INSOMNIA,INSOMNIA,PSYCHIATRIC DISORDERS,MODERATE,N,NONE,THERAPY PHARMACOLOGY (OTC OR RX),REMOTELY,"NOT YET RESOLVED, WORSENING",,,,,,,Y,2001,,1," ",
NIDA-CTN-0001,AE,01_024957,2001,14,ACTIVE,STUDY DAY 14,14,1779,INSOMNIA,INSOMNIA,PSYCHIATRIC DISORDERS,MODERATE,N,NONE,THERAPY PHARMACOLOGY (OTC OR RX),REMOTELY,"NOT YET RESOLVED, NO CHANGE",,,,,,,Y,2001,,1," ",
NIDA-CTN-0001,AE,01_024957,2001,2,ACTIVE,STUDY DAY 2,2,1780,INSOMNIA,INSOMNIA,PSYCHIATRIC DISORDERS,MODERATE,N,NONE,THERAPY PHARMACOLOGY (OTC OR RX),UNKNOWN,"NOT YET RESOLVED, BUT IMPROVING",,,,,,,Y,2001,,1," ",
NIDA-CTN-0001,AE,01_024957,2001,3,ACTIVE,STUDY DAY 3,3,1781,INSOMNIA,INSOMNIA,PSYCHIATRIC DISORDERS,MODERATE,N,NONE,NONE,UNKNOWN,"NOT YET RESOLVED, BUT IMPROVING",,,,,,,,2001,,1," ",
NIDA-CTN-0001,AE,01_024957,2001,4,ACTIVE,STUDY DAY 4,4,1782,INSOMNIA,INSOMNIA,PSYCHIATRIC DISORDERS,MODERATE,N,NONE,NONE,UNKNOWN,"NOT YET RESOLVED, WORSENING",,,,,,,,2001,,1," ",
NIDA-CTN-0001,AE,01_024957,2001,5,ACTIVE,STUDY DAY 5,5,1783,INSOMNIA,INSOMNIA,PSYCHIATRIC DISORDERS,MODERATE,N,NONE,THERAPY PHARMACOLOGY (OTC OR RX),UNKNOWN,"NOT YET RESOLVED, BUT IMPROVING",,,,,,,Y,2001,,1," ",
NIDA-CTN-0001,AE,01_024957,2001,6,ACTIVE,STUDY DAY 6,6,1784,INSOMNIA,INSOMNIA,PSYCHIATRIC DISORDERS,MODERATE,N,NONE,THERAPY PHARMACOLOGY (OTC OR RX),UNKNOWN,"NOT YET RESOLVED, BUT IMPROVING",,,,,,,Y,2001,,1," ",
NIDA-CTN-0001,AE,01_024957,2001,2,ACTIVE,STUDY DAY 2,2,1785,LOW BLOOD PRESSURE,HYPOTENSION,VASCULAR DISORDERS,MILD,N,DISCONTINUED TEMPORARILY,NONE,DEFINITELY,"NOT YET RESOLVED, NO CHANGE",,,,,,,,2001,,2," ",
NIDA-CTN-0001,AE,01_024957,2001,3,ACTIVE,STUDY DAY 3,3,1786,LOW BLOOD PRESSURE,HYPOTENSION,VASCULAR DISORDERS,MILD,N,NONE,NONE,DEFINITELY,"NOT YET RESOLVED, NO CHANGE",,,,,,,,2001,,2," ",
NIDA-CTN-0001,AE,01_024957,2001,4,ACTIVE,STUDY DAY 4,4,1787,LOW BLOOD PRESSURE,HYPOTENSION,VASCULAR DISORDERS,MILD,N,NONE,NONE,DEFINITELY,"RESOLVED, NO SEQUELAE",,,,,,,,2001,2001,2,4,
NIDA-CTN-0001,AE,01_024957,2001,6,ACTIVE,STUDY DAY 6,6,1788,LOW BLOOD PRESSURE,HYPOTENSION,VASCULAR DISORDERS,MILD,N,NONE,NONE,PROBABLY,"NOT YET RESOLVED, NO CHANGE",,,,,,,,2001,,6," ",
NIDA-CTN-0001,AE,01_024957,2001,7,ACTIVE,STUDY DAY 7,7,1789,LOW BLOOD PRESSURE,HYPOTENSION,VASCULAR DISORDERS,MILD,N,NONE,NONE,PROBABLY,"NOT YET RESOLVED, NO CHANGE",,,,,,,Y,2001,,6," ",
NIDA-CTN-0001,AE,01_024957,2001,2,ACTIVE,STUDY DAY 2,2,1790,WEAKNESS,ASTHENIA,GENERAL DISORDERS AND ADMINISTRATION SITE CONDITIONS,MILD,N,NONE,NONE,UNKNOWN,"NOT YET RESOLVED, NO CHANGE",,,,,,,Y,2001,,2," ",
NIDA-CTN-0001,AE,01_024957,2001,3,ACTIVE,STUDY DAY 3,3,1791,WEAKNESS,ASTHENIA,GENERAL DISORDERS AND ADMINISTRATION SITE CONDITIONS,MILD,N,NONE,NONE,UNKNOWN,"NOT YET RESOLVED, BUT IMPROVING",,,,,,,Y,2001,,2," ",
NIDA-CTN-0001,AE,01_024957,2001,4,ACTIVE,STUDY DAY 4,4,1792,WEAKNESS,ASTHENIA,GENERAL DISORDERS AND ADMINISTRATION SITE CONDITIONS,MILD,N,NONE,NONE,UNKNOWN,"NOT YET RESOLVED, BUT IMPROVING",,,,,,,Y,2001,,2," ",
NIDA-CTN-0001,AE,01_024957,2001,5,ACTIVE,STUDY DAY 5,5,1793,WEAKNESS,ASTHENIA,GENERAL DISORDERS AND ADMINISTRATION SITE CONDITIONS,MILD,N,NONE,NONE,UNKNOWN,"RESOLVED, NO SEQUELAE",,,,,,,Y,2001,2001,2,4,
NIDA-CTN-0001,AE,01_027452,2002,204,FOLLOW-UP 3,FOLLOW-UP 3,17,856,CELLUTLITIS,CELLULITIS,INFECTIONS AND INFESTATIONS,SEVERE,Y,NONE,,DEFINITELY NOT,HOSPITALIZATION,,,,Y,,,,2002,2002,196,203,DURING/AFTER
NIDA-CTN-0001,AE,01_027452,2002,1,ACTIVE,STUDY DAY 1,1,854,CHILLS,RIGORS,GENERAL DISORDERS AND ADMINISTRATION SITE CONDITIONS,MODERATE,N,NONE,NONE,REMOTELY,UNKNOWN,,,,,,,,2002,2002,1,1,
NIDA-CTN-0001,AE,01_027452,2002,1,ACTIVE,STUDY DAY 1,1,855,IRRITABILITY,IRRITABILITY,PSYCHIATRIC DISORDERS,MODERATE,N,NONE,NONE,REMOTELY,UNKNOWN,,,,,,,,2002,2002,1,1,
NIDA-CTN-0001,AE,01_027452,2002,1,ACTIVE,STUDY DAY 1,1,857,POORAPPETITE,APPETITE DECREASED NOS,METABOLISM AND NUTRITION DISORDERS,MODERATE,N,NONE,NONE,REMOTELY,UNKNOWN,,,,,,,,2002,2002,1,1,
NIDA-CTN-0001,AE,01_027466,2001,2,ACTIVE,STUDY DAY 2,2,737,ANXIETY,ANXIETY NEC,PSYCHIATRIC DISORDERS,MILD,N,NONE,THERAPY PHARMACOLOGY (OTC OR RX),POSSIBLY,"RESOLVED, NO SEQUELAE",,,,,,,Y,2001,2001,1,2,
NIDA-CTN-0001,AE,01_027466,2002,46,FOLLOW-UP 1,FOLLOW-UP 1,15,738,BACKACHE,BACK PAIN,MUSCULOSKELETAL AND CONNECTIVE TISSUE DISORDERS,MILD,N,NONE,THERAPY PHARMACOLOGY (OTC OR RX),POSSIBLY,"RESOLVED, NO SEQUELAE",,,,,,,Y,2002,2002,45,46,
NIDA-CTN-0001,AE,01_027466,2001,1,ACTIVE,STUDY DAY 1,1,739,BODY ACHES,PAIN NOS,GENERAL DISORDERS AND ADMINISTRATION SITE CONDITIONS,MILD,N,NONE,NONE,REMOTELY,"RESOLVED, NO SEQUELAE",,,,,,,,2001,2001,1,2,
NIDA-CTN-0001,AE,01_027466,2002,46,FOLLOW-UP 1,FOLLOW-UP 1,15,740,HEADACHE,HEADACHE NOS,NERVOUS SYSTEM DISORDERS,MILD,N,NONE,THERAPY PHARMACOLOGY (OTC OR RX),POSSIBLY,"RESOLVED, NO SEQUELAE",,,,,,,Y,2002,2002,46,46,
NIDA-CTN-0001,AE,01_027466,2001,2,ACTIVE,STUDY DAY 2,2,741,INS0MNIA,INSOMNIA,PSYCHIATRIC DISORDERS,MILD,N,NONE,THERAPY PHARMACOLOGY (OTC OR RX),POSSIBLY,"RESOLVED, NO SEQUELAE",,,,,,,Y,2001,2001,1,2,
NIDA-CTN-0001,AE,01_027466,2001,2,ACTIVE,STUDY DAY 2,2,742,JOINT PAIN,ARTHRALGIA,MUSCULOSKELETAL AND CONNECTIVE TISSUE DISORDERS,MILD,N,NONE,THERAPY PHARMACOLOGY (OTC OR RX),POSSIBLY,"RESOLVED, NO SEQUELAE",,,,,,,Y,2001,2001,1,2,
NIDA-CTN-0001,AE,01_027466,2001,1,ACTIVE,STUDY DAY 1,1,743,RUNNING NOSE,RHINORRHOEA,"RESPIRATORY, THORACIC AND MEDIASTINAL DISORDERS",MILD,N,NONE,NONE,REMOTELY,"RESOLVED, NO SEQUELAE",,,,,,,,2001,2001,1,2,
NIDA-CTN-0001,AE,01_027466,2001,1,ACTIVE,STUDY DAY 1,1,744,SWEATING,SWEATING INCREASED,SKIN AND SUBCUTANEOUS TISSUE DISORDERS,MILD,N,NONE,NONE,REMOTELY,"RESOLVED, NO SEQUELAE",,,,,,,,2001,2001,1,2,
NIDA-CTN-0001,AE,01_027631,2001,1,ACTIVE,STUDY DAY 1,1,976,ABDOMINAL CRAMPS,ABDOMINAL PAIN NOS,GASTROINTESTINAL DISORDERS,MODERATE,N,NONE,THERAPY NON-PHARMACOLOGY,DEFINITELY NOT,"RESOLVED, NO SEQUELAE",,,,,,,Y,2001,2001,-1,1,
NIDA-CTN-0001,AE,01_027631,2001,1,ACTIVE,STUDY DAY 1,1,977,ANXIETY,ANXIETY NEC,PSYCHIATRIC DISORDERS,MILD,N,NONE,NONE,DEFINITELY NOT,"RESOLVED, NO SEQUELAE",,,,,,,Y,2001,2001,-1,3,
NIDA-CTN-0001,AE,01_027631,2001,5,ACTIVE,STUDY DAY 5,5,978,ANXIETY,ANXIETY NEC,PSYCHIATRIC DISORDERS,MILD,N,NONE,NONE,DEFINITELY NOT,"RESOLVED, NO SEQUELAE",,,,,,,,2001,2001,4,12,
NIDA-CTN-0001,AE,01_027631,2001,8,ACTIVE,STUDY DAY 8,8,979,DISTURBING DREAMS,ABNORMAL DREAMS,PSYCHIATRIC DISORDERS,MODERATE,N,NONE,NONE,PROBABLY,"RESOLVED, NO SEQUELAE",,,,,,,,2001,2001,8,8,
NIDA-CTN-0001,AE,01_027631,2001,2,ACTIVE,STUDY DAY 2,2,980,HEADACHE,HEADACHE NOS,NERVOUS SYSTEM DISORDERS,MILD,N,NONE,NONE,UNKNOWN,"RESOLVED, NO SEQUELAE",,,,,,,,2001,2001,1,2,
NIDA-CTN-0001,AE,01_027631,2001,6,ACTIVE,STUDY DAY 6,6,981,HEADACHE,HEADACHE,NERVOUS SYSTEM DISORDERS,MILD,N,NONE,THERAPY PHARMACOLOGY (OTC OR RX),UNKNOWN,"RESOLVED, NO SEQUELAE",,,,,,,Y,2001,2001,5,5,
NIDA-CTN-0001,AE,01_027631,2001,7,ACTIVE,STUDY DAY 7,7,982,LOW BACK PAIN,BACK PAIN,MUSCULOSKELETAL AND CONNECTIVE TISSUE DISORDERS,MODERATE,N,NONE,THERAPY PHARMACOLOGY (OTC OR RX),DEFINITELY NOT,"RESOLVED, NO SEQUELAE",,,,,,,Y,2001,2001,6,12,
NIDA-CTN-0001,AE,01_027631,2001,13,ACTIVE,STUDY DAY 13,13,983,LOW BACK PAIN,BACK PAIN,MUSCULOSKELETAL AND CONNECTIVE TISSUE DISORDERS,MILD,N,NONE,THERAPY PHARMACOLOGY (OTC OR RX),DEFINITELY NOT,"NOT YET RESOLVED, BUT IMPROVING",,,,,,,Y,2001,2001,13,14,
NIDA-CTN-0001,AE,01_027631,2001,1,ACTIVE,STUDY DAY 1,1,984,MUSCLE CRAMPS,MUSCLE CRAMPS,MUSCULOSKELETAL AND CONNECTIVE TISSUE DISORDERS,MODERATE,N,NONE,THERAPY NON-PHARMACOLOGY,DEFINITELY NOT,"RESOLVED, NO SEQUELAE",,,,,,,Y,2001,2001,-1,1,
NIDA-CTN-0001,AE,01_027631,2001,5,ACTIVE,STUDY DAY 5,5,985,NAUSEA,NAUSEA,GASTROINTESTINAL DISORDERS,MODERATE,N,NONE,NONE,DEFINITELY NOT,"RESOLVED, NO SEQUELAE",,,,,,,,2001,2001,4,4,
NIDA-CTN-0001,AE,01_027631,2001,6,ACTIVE,STUDY DAY 6,6,986,NAUSEA,NAUSEA,GASTROINTESTINAL DISORDERS,MILD,N,NONE,NONE,POSSIBLY,UNKNOWN,,,,,,,Y,2001,,5," ",
NIDA-CTN-0001,AE,01_027631,2001,3,ACTIVE,STUDY DAY 3,3,987,NIGHTMARE,NIGHTMARE,PSYCHIATRIC DISORDERS,MODERATE,N,NONE,NONE,DEFINITELY NOT,"RESOLVED, NO SEQUELAE",,,,,,,,2001,2001,3,3,
NIDA-CTN-0001,AE,01_027631,2001,4,ACTIVE,STUDY DAY 4,4,988,NIGHTMARE,NIGHTMARE,PSYCHIATRIC DISORDERS,MILD,N,NONE,NONE,PROBABLY,"RESOLVED, NO SEQUELAE",,,,,,,,2001,2001,4,4,
NIDA-CTN-0001,AE,01_027631,2001,9,ACTIVE,STUDY DAY 9,9,989,NIGHTMARE,NIGHTMARE,PSYCHIATRIC DISORDERS,SEVERE,N,NONE,NONE,PROBABLY,"RESOLVED, NO SEQUELAE",,,,,,,,2001,2001,9,9,
NIDA-CTN-0001,AE,01_027631,2001,13,ACTIVE,STUDY DAY 13,13,990,RASH,RASH NOS,SKIN AND SUBCUTANEOUS TISSUE DISORDERS,MILD,N,NONE,THERAPY PHARMACOLOGY (OTC OR RX),DEFINITELY NOT,"RESOLVED, NO SEQUELAE",,,,,,,Y,2001,2001,12,13,
NIDA-CTN-0001,AE,01_027631,2001,2,ACTIVE,STUDY DAY 2,2,991,SLEEPLESSNESS,INSOMNIA,PSYCHIATRIC DISORDERS,MODERATE,N,NONE,NONE,REMOTELY,"RESOLVED, NO SEQUELAE",,,,,,,,2001,2001,1,2,
NIDA-CTN-0001,AE,01_027631,2001,3,ACTIVE,STUDY DAY 3,3,992,SLEEPLESSNESS,INSOMNIA,PSYCHIATRIC DISORDERS,MODERATE,N,NONE,NONE,REMOTELY,"RESOLVED, NO SEQUELAE",,,,,,,,2001,2001,2,3,
NIDA-CTN-0001,AE,01_027631,2001,4,ACTIVE,STUDY DAY 4,4,993,SLEEPLESSNESS,INSOMNIA,PSYCHIATRIC DISORDERS,MODERATE,N,NONE,NONE,REMOTELY,"RESOLVED, NO SEQUELAE",,,,,,,,2001,2001,3,4,
NIDA-CTN-0001,AE,01_027631,2001,5,ACTIVE,STUDY DAY 5,5,994,TENSION HEADACHE,TENSION HEADACHES,NERVOUS SYSTEM DISORDERS,MODERATE,N,NONE,NONE,UNKNOWN,"RESOLVED, NO SEQUELAE",,,,,,,,2001,2001,4,4,
NIDA-CTN-0001,AE,01_027631,2001,3,ACTIVE,STUDY DAY 3,3,995,TENSIONHEADACHE,TENSION HEADACHES,NERVOUS SYSTEM DISORDERS,MILD,N,NONE,NONE,UNKNOWN,"RESOLVED, NO SEQUELAE",,,,,,,,2001,2001,2,3,
NIDA-CTN-0001,AE,01_029678,2001,1,ACTIVE,STUDY DAY 1,1,789,ANXIETY,ANXIETY NEC,PSYCHIATRIC DISORDERS,MODERATE,N,NONE,NONE,REMOTELY,"RESOLVED, NO SEQUELAE",,,,,,,,2001,2001,1,1,
NIDA-CTN-0001,AE,01_029678,2001,2,ACTIVE,STUDY DAY 2,2,790,ANXIETY,ANXIETY NEC,PSYCHIATRIC DISORDERS,MODERATE,N,NONE,THERAPY PHARMACOLOGY (OTC OR RX),POSSIBLY,"RESOLVED, NO SEQUELAE",,,,,,,Y,2001,2001,1,4,
NIDA-CTN-0001,AE,01_029678,2001,1,ACTIVE,STUDY DAY 1,1,791,BODYACHE,PAIN NOS,GENERAL DISORDERS AND ADMINISTRATION SITE CONDITIONS,MODERATE,N,NONE,NONE,REMOTELY,"RESOLVED, NO SEQUELAE",,,,,,,,2001,2001,1,2,
NIDA-CTN-0001,AE,01_029678,2002,147,FOLLOW-UP 3,FOLLOW-UP 3,17,792,ENDOCARDITIS,ENDOCARDITIS NOS,CARDIAC DISORDERS,LIFE-THREATENING,Y,NONE,HOSPITALIZATION,DEFINITELY NOT,DECEASED,,,Y,Y,Y,,,,2002," ",139,
NIDA-CTN-0001,AE,01_029678,2002,147,FOLLOW-UP 3,FOLLOW-UP 3,17,796,ENDOCARDITIS,ENDOCARDITIS,INFECTIONS AND INFESTATIONS,LETHAL,Y,NONE,,DEFINITELY NOT,DEATH,,,Y,,,,,2002,2002,124,139,
NIDA-CTN-0001,AE,01_029678,2001,2,ACTIVE,STUDY DAY 2,2,793,INSOMNIA,INSOMNIA,PSYCHIATRIC DISORDERS,MODERATE,N,NONE,THERAPY PHARMACOLOGY (OTC OR RX),PROBABLY,"RESOLVED, NO SEQUELAE",,,,,,,Y,2001,2001,1,5,
NIDA-CTN-0001,AE,01_029678,2001,2,ACTIVE,STUDY DAY 2,2,794,JOINTPAIN,ARTHRALGIA,MUSCULOSKELETAL AND CONNECTIVE TISSUE DISORDERS,MODERATE,N,NONE,THERAPY PHARMACOLOGY (OTC OR RX),POSSIBLY,"RESOLVED, NO SEQUELAE",,,,,,,Y,2001,2001,1,4,
NIDA-CTN-0001,AE,01_029678,2001,4,ACTIVE,STUDY DAY 4,4,795,LOOSESTOOL,LOOSE STOOLS,GASTROINTESTINAL DISORDERS,MILD,N,NONE,THERAPY PHARMACOLOGY (OTC OR RX),POSSIBLY,"RESOLVED, NO SEQUELAE",,,,,,,Y,2001,2001,3,4,
NIDA-CTN-0001,AE,01_033121,2002,1,ACTIVE,STUDY DAY 1,1,1357,ANXIETY,ANXIETY NEC,PSYCHIATRIC DISORDERS,MODERATE,N,NONE,THERAPY PHARMACOLOGY (OTC OR RX),DEFINITELY NOT,"RESOLVED, NO SEQUELAE",,,,,,,Y,2002,2002,-1,5,
NIDA-CTN-0001,AE,01_033121,2002,2,ACTIVE,STUDY DAY 2,2,1358,BACK PAIN,BACK PAIN,MUSCULOSKELETAL AND CONNECTIVE TISSUE DISORDERS,SEVERE,N,NONE,THERAPY PHARMACOLOGY (OTC OR RX),DEFINITELY NOT,"RESOLVED, NO SEQUELAE",,,,,,,Y,2002,2002,2,2,
NIDA-CTN-0001,AE,01_033121,2002,3,ACTIVE,STUDY DAY 3,3,1359,BACK PAIN,BACK PAIN,MUSCULOSKELETAL AND CONNECTIVE TISSUE DISORDERS,SEVERE,N,NONE,THERAPY PHARMACOLOGY (OTC OR RX),REMOTELY,"RESOLVED, NO SEQUELAE",,,,,,,Y,2002,2002,3,4,
NIDA-CTN-0001,AE,01_033121,2002,30,FOLLOW-UP 1,FOLLOW-UP 1,15,1360,BACK PAIN,BACK PAIN,MUSCULOSKELETAL AND CONNECTIVE TISSUE DISORDERS,MODERATE,N,NONE,THERAPY PHARMACOLOGY (OTC OR RX),REMOTELY,"NOT YET RESOLVED, NO CHANGE",,,,,,,Y,2002,2002,19,30,
NIDA-CTN-0001,AE,01_033121,2002,8,ACTIVE,STUDY DAY 8,8,1361,BODY ACHES,PAIN NOS,GENERAL DISORDERS AND ADMINISTRATION SITE CONDITIONS,SEVERE,N,NONE,THERAPY PHARMACOLOGY (OTC OR RX),REMOTELY,"RESOLVED, NO SEQUELAE",,,,,,,Y,2002,2002,7,7,
NIDA-CTN-0001,AE,01_033121,2002,11,ACTIVE,STUDY DAY 11,11,1362,BODY ACHES,PAIN NOS,GENERAL DISORDERS AND ADMINISTRATION SITE CONDITIONS,SEVERE,N,NONE,THERAPY PHARMACOLOGY (OTC OR RX),REMOTELY,"RESOLVED, NO SEQUELAE",,,,,,,Y,2002,2002,10,11,
NIDA-CTN-0001,AE,01_033121,2002,1,ACTIVE,STUDY DAY 1,1,1363,DIARREAH,DIARRHOEA NOS,GASTROINTESTINAL DISORDERS,SEVERE,N,NONE,THERAPY PHARMACOLOGY (OTC OR RX),DEFINITELY NOT,"RESOLVED, NO SEQUELAE",,,,,,,Y,2002,2002,-1,-1,
NIDA-CTN-0001,AE,01_033121,2002,1,ACTIVE,STUDY DAY 1,1,1364,DIFFICULTY CONCENTRATING,DISTURBANCE IN ATTENTION,NERVOUS SYSTEM DISORDERS,MODERATE,N,NONE,NONE,REMOTELY,"RESOLVED, NO SEQUELAE",,,,,,,Y,2002,2002,-2,3,
NIDA-CTN-0001,AE,01_033121,2002,3,ACTIVE,STUDY DAY 3,3,1365,FATIGUE,FATIGUE,GENERAL DISORDERS AND ADMINISTRATION SITE CONDITIONS,MODERATE,N,NONE,NONE,PROBABLY,"RESOLVED, NO SEQUELAE",,,,,,,,2002,2002,2,5,
NIDA-CTN-0001,AE,01_033121,2002,6,ACTIVE,STUDY DAY 6,6,1366,FATIGUE,FATIGUE,GENERAL DISORDERS AND ADMINISTRATION SITE CONDITIONS,MODERATE,N,NONE,NONE,POSSIBLY,"RESOLVED, NO SEQUELAE",,,,,,,Y,2002,2002,5,6,
NIDA-CTN-0001,AE,01_033121,2002,8,ACTIVE,STUDY DAY 8,8,1367,FATIGUE,FATIGUE,GENERAL DISORDERS AND ADMINISTRATION SITE CONDITIONS,SEVERE,N,NONE,NONE,POSSIBLY,"RESOLVED, NO SEQUELAE",,,,,,,,2002,2002,7,8,
NIDA-CTN-0001,AE,01_033121,2002,10,ACTIVE,STUDY DAY 10,10,1368,HEADACHE,HEADACHE NOS,NERVOUS SYSTEM DISORDERS,MILD,N,NONE,THERAPY PHARMACOLOGY (OTC OR RX),POSSIBLY,"RESOLVED, NO SEQUELAE",,,,,,,Y,2002,2002,9,11,
NIDA-CTN-0001,AE,01_033121,2002,14,ACTIVE,STUDY DAY 14,14,1369,HEADACHE,HEADACHE NOS,NERVOUS SYSTEM DISORDERS,MILD,N,NONE,THERAPY PHARMACOLOGY (OTC OR RX),REMOTELY,"RESOLVED, NO SEQUELAE",,,,,,,Y,2002,2002,12,12,
NIDA-CTN-0001,AE,01_033121,2002,30,FOLLOW-UP 1,FOLLOW-UP 1,15,1370,HEADACHE,HEADACHE NOS,NERVOUS SYSTEM DISORDERS,MILD,N,NONE,THERAPY PHARMACOLOGY (OTC OR RX),POSSIBLY,"NOT YET RESOLVED, NO CHANGE",,,,,,,Y,2002,2002,15,30,
NIDA-CTN-0001,AE,01_033121,2002,5,ACTIVE,STUDY DAY 5,5,1371,HEARTBURN,DYSPEPSIA,GASTROINTESTINAL DISORDERS,MILD,N,NONE,THERAPY PHARMACOLOGY (OTC OR RX),REMOTELY,"RESOLVED, NO SEQUELAE",,,,,,,Y,2002,2002,4,4,
NIDA-CTN-0001,AE,01_033121,2002,7,ACTIVE,STUDY DAY 7,7,1372,HEARTBURN,DYSPEPSIA,GASTROINTESTINAL DISORDERS,MODERATE,N,NONE,THERAPY PHARMACOLOGY (OTC OR RX),REMOTELY,"RESOLVED, NO SEQUELAE",,,,,,,Y,2002,2002,6,6,
NIDA-CTN-0001,AE,01_033121,2002,10,ACTIVE,STUDY DAY 10,10,1373,HEARTBURN,DYSPEPSIA,GASTROINTESTINAL DISORDERS,SEVERE,N,NONE,THERAPY PHARMACOLOGY (OTC OR RX),REMOTELY,"RESOLVED, NO SEQUELAE",,,,,,,Y,2002,2002,9,9,
NIDA-CTN-0001,AE,01_033121,2002,30,FOLLOW-UP 1,FOLLOW-UP 1,15,1374,HEARTBURN,DYSPEPSIA,GASTROINTESTINAL DISORDERS,SEVERE,N,NONE,THERAPY PHARMACOLOGY (OTC OR RX),REMOTELY,"RESOLVED, NO SEQUELAE",,,,,,,Y,2002,2002,29,29,
NIDA-CTN-0001,AE,01_033121,2002,1,ACTIVE,STUDY DAY 1,1,1375,INSOMNIA,INSOMNIA,PSYCHIATRIC DISORDERS,MODERATE,N,NONE,THERAPY PHARMACOLOGY (OTC OR RX),DEFINITELY NOT,"RESOLVED, NO SEQUELAE",,,,,,,Y,2002,2002,-2,11,
NIDA-CTN-0001,AE,01_033121,2002,10,ACTIVE,STUDY DAY 10,10,1376,INTESTINAL GAS,ABDOMINAL DISTENSION,GASTROINTESTINAL DISORDERS,MODERATE,N,NONE,THERAPY PHARMACOLOGY (OTC OR RX),REMOTELY,"RESOLVED, NO SEQUELAE",,,,,,,Y,2002,2002,8,10,
NIDA-CTN-0001,AE,01_033121,2002,1,ACTIVE,STUDY DAY 1,1,1377,LEG CRAMPS,MUSCLE CRAMPS,MUSCULOSKELETAL AND CONNECTIVE TISSUE DISORDERS,SEVERE,N,NONE,THERAPY PHARMACOLOGY (OTC OR RX),DEFINITELY NOT,"RESOLVED, NO SEQUELAE",,,,,,,Y,2002,2002,-1,5,
NIDA-CTN-0001,AE,01_033121,2002,7,ACTIVE,STUDY DAY 7,7,1378,MUSCLE CRAMPING,MUSCLE CRAMPS,MUSCULOSKELETAL AND CONNECTIVE TISSUE DISORDERS,MODERATE,N,NONE,NONE,REMOTELY,"RESOLVED, NO SEQUELAE",,,,,,,,2002,2002,6,6,
NIDA-CTN-0001,AE,01_033121,2002,3,ACTIVE,STUDY DAY 3,3,1379,NAUSEA,NAUSEA,GASTROINTESTINAL DISORDERS,MODERATE,N,NONE,NONE,REMOTELY,"RESOLVED, NO SEQUELAE",,,,,,,,2002,2002,2,2,
NIDA-CTN-0001,AE,01_033121,2002,8,ACTIVE,STUDY DAY 8,8,1380,NAUSEA,NAUSEA,GASTROINTESTINAL DISORDERS,MODERATE,N,NONE,NONE,REMOTELY,"RESOLVED, NO SEQUELAE",,,,,,,Y,2002,2002,7,7,
NIDA-CTN-0001,AE,01_033121,2002,9,ACTIVE,STUDY DAY 9,9,1381,RESTLESS LEGS,RESTLESS LEG SYNDROME,NERVOUS SYSTEM DISORDERS,MODERATE,N,NONE,THERAPY PHARMACOLOGY (OTC OR RX),REMOTELY,"RESOLVED, NO SEQUELAE",,,,,,,Y,2002,2002,5,9,
NIDA-CTN-0001,AE,01_033121,2002,4,ACTIVE,STUDY DAY 4,4,1382,SNEEZING,SNEEZING,"RESPIRATORY, THORACIC AND MEDIASTINAL DISORDERS",MODERATE,N,NONE,NONE,DEFINITELY NOT,"RESOLVED, NO SEQUELAE",,,,,,,,2002,2002,3,4,
NIDA-CTN-0001,AE,01_033121,2002,6,ACTIVE,STUDY DAY 6,6,1383,STOMACH CRAMPING,ABDOMINAL PAIN UPPER,GASTROINTESTINAL DISORDERS,MILD,N,NONE,NONE,DEFINITELY NOT,"RESOLVED, NO SEQUELAE",,,,,,,Y,2002,2002,5,5,
NIDA-CTN-0001,AE,01_033121,2002,3,ACTIVE,STUDY DAY 3,3,1384,STOMACH CRAMPS,ABDOMINAL PAIN UPPER,GASTROINTESTINAL DISORDERS,MILD,N,NONE,NONE,REMOTELY,"RESOLVED, NO SEQUELAE",,,,,,,,2002,2002,3,4,
NIDA-CTN-0001,AE,01_033121,2002,13,ACTIVE,STUDY DAY 13,13,1385,UPPER BACK ACHE,BACK PAIN,MUSCULOSKELETAL AND CONNECTIVE TISSUE DISORDERS,MILD,N,NONE,THERAPY PHARMACOLOGY (OTC OR RX),REMOTELY,"RESOLVED, NO SEQUELAE",,,,,,,Y,2002,2002,13,13,
NIDA-CTN-0001,AE,01_033121,2002,3,ACTIVE,STUDY DAY 3,3,1386,WEAKNESS,WEAKNESS,GENERAL DISORDERS AND ADMINISTRATION SITE CONDITIONS,MODERATE,N,NONE,NONE,PROBABLY,"RESOLVED, NO SEQUELAE",,,,,,,,2002,2002,2,4,
NIDA-CTN-0001,AE,01_033121,2002,6,ACTIVE,STUDY DAY 6,6,1387,YEAST INFECTION,FUNGAL INFECTION NOS,INFECTIONS AND INFESTATIONS,MODERATE,N,NONE,THERAPY PHARMACOLOGY (OTC OR RX),DEFINITELY NOT,"RESOLVED, NO SEQUELAE",,,,,,,Y,2002,2002,5,6,
NIDA-CTN-0001,AE,01_033375,2001,2,ACTIVE,STUDY DAY 2,2,918,ABDOMINAL CRAMPS,ABDOMINAL PAIN NOS,GASTROINTESTINAL DISORDERS,SEVERE,N,NONE,THERAPY PHARMACOLOGY (OTC OR RX),DEFINITELY NOT,UNKNOWN,,,,,,,Y,2001,2001,2,3,
NIDA-CTN-0001,AE,01_033375,2001,2,ACTIVE,STUDY DAY 2,2,919,ANXIETY,ANXIETY NEC,PSYCHIATRIC DISORDERS,SEVERE,N,NONE,THERAPY PHARMACOLOGY (OTC OR RX),DEFINITELY NOT,"RESOLVED, NO SEQUELAE",,,,,,,Y,2001,2001,1,1,
NIDA-CTN-0001,AE,01_033375,2001,3,ACTIVE,STUDY DAY 3,3,920,BACK ACHE,BACK PAIN,MUSCULOSKELETAL AND CONNECTIVE TISSUE DISORDERS,MILD,N,NONE,NONE,DEFINITELY NOT,UNKNOWN,,,,,,,,2001,,2," ",
NIDA-CTN-0001,AE,01_033375,2001,3,ACTIVE,STUDY DAY 3,3,921,BODY PAIN,PAIN NOS,GENERAL DISORDERS AND ADMINISTRATION SITE CONDITIONS,MILD,N,NONE,NONE,DEFINITELY NOT,UNKNOWN,,,,,,,,2001,,3," ",
NIDA-CTN-0001,AE,01_033375,2001,3,ACTIVE,STUDY DAY 3,3,922,BONE PAIN,BONE PAIN,MUSCULOSKELETAL AND CONNECTIVE TISSUE DISORDERS,MILD,N,NONE,NONE,DEFINITELY NOT,UNKNOWN,,,,,,,,2001,,3," ",
NIDA-CTN-0001,AE,01_033375,2001,3,ACTIVE,STUDY DAY 3,3,923,INCREASED HEART RATE,HEART RATE INCREASED,INVESTIGATIONS,MILD,N,NONE,THERAPY PHARMACOLOGY (OTC OR RX),DEFINITELY NOT,UNKNOWN,,,,,,,Y,2001,2001,2,2,
NIDA-CTN-0001,AE,01_033375,2001,3,ACTIVE,STUDY DAY 3,3,924,INSOMNIA,INSOMNIA,PSYCHIATRIC DISORDERS,MODERATE,N,NONE,NONE,DEFINITELY NOT,UNKNOWN,,,,,,,Y,2001,,2," ",
NIDA-CTN-0001,AE,01_033375,2001,3,ACTIVE,STUDY DAY 3,3,925,RESTLESSNESS,RESTLESSNESS,PSYCHIATRIC DISORDERS,MODERATE,N,NONE,NONE,DEFINITELY NOT,UNKNOWN,,,,,,,Y,2001,,2," ",
NIDA-CTN-0001,AE,01_033479,2001,1,ACTIVE,STUDY DAY 1,1,776,BACK ACHE,BACK PAIN,MUSCULOSKELETAL AND CONNECTIVE TISSUE DISORDERS,MODERATE,N,NONE,THERAPY PHARMACOLOGY (OTC OR RX),POSSIBLY,"RESOLVED, NO SEQUELAE",,,,,,,Y,2001,2001,1,3,
NIDA-CTN-0001,AE,01_033479,2001,2,ACTIVE,STUDY DAY 2,2,777,INSOMNIA,INSOMNIA,PSYCHIATRIC DISORDERS,MILD,N,NONE,THERAPY PHARMACOLOGY (OTC OR RX),POSSIBLY,"RESOLVED, NO SEQUELAE",,,,,,,Y,2001,2001,1,3,
NIDA-CTN-0001,AE,01_033479,2001,1,ACTIVE,STUDY DAY 1,1,778,NAUSEA,NAUSEA,GASTROINTESTINAL DISORDERS,MODERATE,N,NONE,THERAPY PHARMACOLOGY (OTC OR RX),POSSIBLY,"RESOLVED, NO SEQUELAE",,,,,,,Y,2001,2001,1,3,
NIDA-CTN-0001,AE,01_033479,2001,2,ACTIVE,STUDY DAY 2,2,779,RESTLESSNESS,RESTLESSNESS,PSYCHIATRIC DISORDERS,MILD,N,NONE,THERAPY PHARMACOLOGY (OTC OR RX),POSSIBLY,"RESOLVED, NO SEQUELAE",,,,,,,Y,2001,2001,1,2,
NIDA-CTN-0001,AE,01_033479,2001,1,ACTIVE,STUDY DAY 1,1,780,STOMACH CRAMPS,ABDOMINAL PAIN UPPER,GASTROINTESTINAL DISORDERS,MODERATE,N,NONE,NONE,POSSIBLY,"RESOLVED, NO SEQUELAE",,,,,,,Y,2001,2001,1,3,
NIDA-CTN-0001,AE,01_033941,2002,11,ACTIVE,STUDY DAY 11,11,2365,CHEST TIGHTNESS,CHEST DISCOMFORT,GENERAL DISORDERS AND ADMINISTRATION SITE CONDITIONS,MODERATE,N,NONE,THERAPY PHARMACOLOGY (OTC OR RX),REMOTELY,"NOT YET RESOLVED, BUT IMPROVING",,,,,,,Y,2002,,11," ",
NIDA-CTN-0001,AE,01_033941,2002,10,ACTIVE,STUDY DAY 10,10,2366,CHILLS,RIGORS,GENERAL DISORDERS AND ADMINISTRATION SITE CONDITIONS,MODERATE,N,NONE,NONE,REMOTELY,"RESOLVED, NO SEQUELAE",,,,,,,,2002,2002,10,14,
NIDA-CTN-0001,AE,01_033941,2002,6,ACTIVE,STUDY DAY 6,6,2367,CONSTIPATION,CONSTIPATION,GASTROINTESTINAL DISORDERS,MILD,N,NONE,NONE,POSSIBLY,"RESOLVED, NO SEQUELAE",,,,,,,,2002,2002,6,31,
NIDA-CTN-0001,AE,01_033941,2002,10,ACTIVE,STUDY DAY 10,10,2368,FEVER,PYREXIA,GENERAL DISORDERS AND ADMINISTRATION SITE CONDITIONS,MODERATE,N,NONE,THERAPY NON-PHARMACOLOGY,DEFINITELY NOT,"RESOLVED, NO SEQUELAE",,,,,,,Y,2002,2002,10,14,
NIDA-CTN-0001,AE,01_033941,2002,2,ACTIVE,STUDY DAY 2,2,2369,INSOMNIA,INSOMNIA,PSYCHIATRIC DISORDERS,MILD,N,NONE,NONE,DEFINITELY NOT,"RESOLVED, NO SEQUELAE",,,,,,,,2002,2002,2,3,
NIDA-CTN-0001,AE,01_033941,2002,6,ACTIVE,STUDY DAY 6,6,2370,INSOMNIA,INSOMNIA,PSYCHIATRIC DISORDERS,MILD,N,NONE,NONE,DEFINITELY NOT,"RESOLVED, NO SEQUELAE",,,,,,,,2002,2002,6,31,
NIDA-CTN-0001,AE,01_033941,2002,10,ACTIVE,STUDY DAY 10,10,2371,MUSCLE ACHES,MYALGIA,MUSCULOSKELETAL AND CONNECTIVE TISSUE DISORDERS,MODERATE,N,NONE,NONE,REMOTELY,"RESOLVED, NO SEQUELAE",,,,,,,,2002,2002,10,13,
NIDA-CTN-0001,AE,01_033941,2002,10,ACTIVE,STUDY DAY 10,10,2372,NASAL CONGESTION,NASAL CONGESTION,"RESPIRATORY, THORACIC AND MEDIASTINAL DISORDERS",MODERATE,N,NONE,NONE,REMOTELY,"RESOLVED, NO SEQUELAE",,,,,,,,2002,2002,10,31,
NIDA-CTN-0001,AE,01_033941,2002,2,ACTIVE,STUDY DAY 2,2,2373,NAUSEA,NAUSEA,GASTROINTESTINAL DISORDERS,MILD,N,NONE,NONE,DEFINITELY NOT,"RESOLVED, NO SEQUELAE",,,,,,,,2002,2002,2,14,
NIDA-CTN-0001,AE,01_033941,2002,2,ACTIVE,STUDY DAY 2,2,2374,POOR APPETITE,DECREASED APPETITE,METABOLISM AND NUTRITION DISORDERS,MILD,N,NONE,NONE,DEFINITELY NOT,"RESOLVED, NO SEQUELAE",,,,,,,,2002,2002,2,31,
NIDA-CTN-0001,AE,01_033941,2002,4,ACTIVE,STUDY DAY 4,4,2375,RESTLESSNESS,RESTLESSNESS,PSYCHIATRIC DISORDERS,MILD,N,NONE,NONE,POSSIBLY,"RESOLVED, NO SEQUELAE",,,,,,,,2002,2002,4,13,
NIDA-CTN-0001,AE,01_033941,2002,11,ACTIVE,STUDY DAY 11,11,2376,SHORTNESS OF BREATH,DYSPNOEA,"RESPIRATORY, THORACIC AND MEDIASTINAL DISORDERS",MODERATE,N,NONE,THERAPY PHARMACOLOGY (OTC OR RX),REMOTELY,"RESOLVED, NO SEQUELAE",,,,,,,Y,2002,2002,11,31,
NIDA-CTN-0001,AE,01_033941,2002,10,ACTIVE,STUDY DAY 10,10,2377,SORETHROAT,PHARYNGOLARYNGEAL PAIN,"RESPIRATORY, THORACIC AND MEDIASTINAL DISORDERS",MILD,N,NONE,NONE,DEFINITELY NOT,"RESOLVED, NO SEQUELAE",,,,,,,,2002,2002,10,31,
NIDA-CTN-0001,AE,01_034039,2001,4,ACTIVE,STUDY DAY 4,4,1560,CONSTIPATION,CONSTIPATION,GASTROINTESTINAL DISORDERS,MILD,N,NONE,THERAPY PHARMACOLOGY (OTC OR RX),POSSIBLY,"NOT YET RESOLVED, NO CHANGE",,,,,,,Y,2001,,4," ",
NIDA-CTN-0001,AE,01_034039,2001,5,ACTIVE,STUDY DAY 5,5,1561,CONSTIPATION,CONSTIPATION,GASTROINTESTINAL DISORDERS,MILD,N,NONE,THERAPY PHARMACOLOGY (OTC OR RX),POSSIBLY,"RESOLVED, NO SEQUELAE",,,,,,,Y,2001,2001,4,5,
NIDA-CTN-0001,AE,01_034039,2001,6,ACTIVE,STUDY DAY 6,6,1562,CONSTIPATION,CONSTIPATION,GASTROINTESTINAL DISORDERS,MILD,N,NONE,NONE,POSSIBLY,"NOT YET RESOLVED, NO CHANGE",,,,,,,,2001,,6," ",
NIDA-CTN-0001,AE,01_034039,2001,7,ACTIVE,STUDY DAY 7,7,1563,CONSTIPATION,CONSTIPATION,GASTROINTESTINAL DISORDERS,MILD,N,NONE,NONE,POSSIBLY,"NOT YET RESOLVED, NO CHANGE",,,,,,,,2001,,6," ",
NIDA-CTN-0001,AE,01_034039,2001,8,ACTIVE,STUDY DAY 8,8,1564,CONSTIPATION,CONSTIPATION,GASTROINTESTINAL DISORDERS,MILD,N,NONE,THERAPY PHARMACOLOGY (OTC OR RX),POSSIBLY,"NOT YET RESOLVED, NO CHANGE",,,,,,,Y,2001,,6," ",
NIDA-CTN-0001,AE,01_034039,2001,9,ACTIVE,STUDY DAY 9,9,1565,CONSTIPATION,CONSTIPATION,GASTROINTESTINAL DISORDERS,MILD,N,NONE,THERAPY PHARMACOLOGY (OTC OR RX),POSSIBLY,"RESOLVED, NO SEQUELAE",,,,,,,Y,2001,2001,6,8,
NIDA-CTN-0001,AE,01_034039,2001,10,ACTIVE,STUDY DAY 10,10,1566,CONSTIPATION,CONSTIPATION,GASTROINTESTINAL DISORDERS,MILD,N,NONE,THERAPY PHARMACOLOGY (OTC OR RX),POSSIBLY,"NOT YET RESOLVED, NO CHANGE",,,,,,,Y,2001,,10," ",
NIDA-CTN-0001,AE,01_034039,2001,11,ACTIVE,STUDY DAY 11,11,1567,CONSTIPATION,CONSTIPATION,GASTROINTESTINAL DISORDERS,MILD,N,NONE,THERAPY PHARMACOLOGY (OTC OR RX),POSSIBLY,"NOT YET RESOLVED, NO CHANGE",,,,,,,Y,2001,,10," ",
NIDA-CTN-0001,AE,01_034039,2001,12,ACTIVE,STUDY DAY 12,12,1568,CONSTIPATION,CONSTIPATION,GASTROINTESTINAL DISORDERS,MILD,N,NONE,THERAPY PHARMACOLOGY (OTC OR RX),POSSIBLY,"RESOLVED, NO SEQUELAE",,,,,,,Y,2001,2001,10,12,
NIDA-CTN-0001,AE,01_034039,2001,9,ACTIVE,STUDY DAY 9,9,1569,DROWSINESS,SOMNOLENCE,NERVOUS SYSTEM DISORDERS,MILD,N,NONE,NONE,POSSIBLY,"NOT YET RESOLVED, NO CHANGE",,,,,,,Y,2001,,8," ",
NIDA-CTN-0001,AE,01_034039,2001,10,ACTIVE,STUDY DAY 10,10,1570,DROWSINESS,SOMNOLENCE,NERVOUS SYSTEM DISORDERS,MILD,N,NONE,NONE,POSSIBLY,"NOT YET RESOLVED, NO CHANGE",,,,,,,,2001,,8," ",
NIDA-CTN-0001,AE,01_034039,2001,11,ACTIVE,STUDY DAY 11,11,1571,DROWSINESS,SOMNOLENCE,NERVOUS SYSTEM DISORDERS,MILD,N,NONE,NONE THERAPY PHARMACOLOGY (OTC OR RX),POSSIBLY,"NOT YET RESOLVED, NO CHANGE",,,,,,,Y,2001,,8," ",
NIDA-CTN-0001,AE,01_034039,2001,12,ACTIVE,STUDY DAY 12,12,1572,DROWSINESS,SOMNOLENCE,NERVOUS SYSTEM DISORDERS,MILD,N,NONE,NONE,POSSIBLY,"NOT YET RESOLVED, NO CHANGE",,,,,,,,2001,,8," ",
NIDA-CTN-0001,AE,01_034039,2001,13,ACTIVE,STUDY DAY 13,13,1573,DROWSINESS,SOMNOLENCE,NERVOUS SYSTEM DISORDERS,MILD,N,NONE,NONE,POSSIBLY,"RESOLVED, NO SEQUELAE",,,,,,,,2001,2001,8,13,
NIDA-CTN-0001,AE,01_034039,2001,2,ACTIVE,STUDY DAY 2,2,1574,DRY MOUTH,DRY MOUTH,GASTROINTESTINAL DISORDERS,MODERATE,N,NONE,NONE,UNKNOWN,"NOT YET RESOLVED, BUT IMPROVING",,,,,,,Y,2001,,1," ",
NIDA-CTN-0001,AE,01_034039,2001,3,ACTIVE,STUDY DAY 3,3,1575,DRY MOUTH,DRY MOUTH,GASTROINTESTINAL DISORDERS,MODERATE,N,NONE,NONE,UNKNOWN,"NOT YET RESOLVED, BUT IMPROVING",,,,,,,Y,2001,,1," ",
NIDA-CTN-0001,AE,01_034039,2001,4,ACTIVE,STUDY DAY 4,4,1576,DRY MOUTH,DRY MOUTH,GASTROINTESTINAL DISORDERS,MODERATE,N,NONE,NONE,REMOTELY,"RESOLVED, NO SEQUELAE",,,,,,,,2001,2001,1,3,
NIDA-CTN-0001,AE,01_034039,2001,2,ACTIVE,STUDY DAY 2,2,1577,HEADACHE,HEADACHE,NERVOUS SYSTEM DISORDERS,MODERATE,N,NONE,NONE,DEFINITELY NOT,"RESOLVED, NO SEQUELAE",,,,,,,Y,2001,2001,2,2,
NIDA-CTN-0001,AE,01_034039,2001,4,ACTIVE,STUDY DAY 4,4,1578,HEADACHE,HEADACHE,NERVOUS SYSTEM DISORDERS,MILD,N,NONE,THERAPY PHARMACOLOGY (OTC OR RX),POSSIBLY,"RESOLVED, NO SEQUELAE",,,,,,,Y,2001,2001,3,3,
NIDA-CTN-0001,AE,01_034039,2001,2,ACTIVE,STUDY DAY 2,2,1579,INSOMNIA,INSOMNIA,PSYCHIATRIC DISORDERS,MODERATE,N,NONE,THERAPY PHARMACOLOGY (OTC OR RX),REMOTELY,"NOT YET RESOLVED, BUT IMPROVING",,,,,,,Y,2001,,1," ",
NIDA-CTN-0001,AE,01_034039,2001,3,ACTIVE,STUDY DAY 3,3,1580,INSOMNIA,INSOMNIA,PSYCHIATRIC DISORDERS,MODERATE,N,NONE,THERAPY PHARMACOLOGY (OTC OR RX),REMOTELY,"NOT YET RESOLVED, BUT IMPROVING",,,,,,,Y,2001,,1," ",
NIDA-CTN-0001,AE,01_034039,2001,4,ACTIVE,STUDY DAY 4,4,1581,INSOMNIA,INSOMNIA,PSYCHIATRIC DISORDERS,MODERATE,N,NONE,THERAPY PHARMACOLOGY (OTC OR RX),REMOTELY,"NOT YET RESOLVED, BUT IMPROVING",,,,,,,Y,2001,,1," ",
NIDA-CTN-0001,AE,01_034039,2001,5,ACTIVE,STUDY DAY 5,5,1582,INSOMNIA,INSOMNIA,PSYCHIATRIC DISORDERS,MODERATE,N,NONE,NONE,REMOTELY,"RESOLVED, NO SEQUELAE",,,,,,,,2001,2001,1,4,
NIDA-CTN-0001,AE,01_034039,2001,6,ACTIVE,STUDY DAY 6,6,1583,INSOMNIA,INSOMNIA,PSYCHIATRIC DISORDERS,MODERATE,N,NONE,NONE,REMOTELY,"NOT YET RESOLVED, NO CHANGE",,,,,,,,2001,,5," ",
NIDA-CTN-0001,AE,01_034039,2001,7,ACTIVE,STUDY DAY 7,7,1584,INSOMNIA,INSOMNIA,PSYCHIATRIC DISORDERS,MODERATE,N,NONE,NONE,REMOTELY,"NOT YET RESOLVED, NO CHANGE",,,,,,,,2001,,5," ",
NIDA-CTN-0001,AE,01_034039,2001,8,ACTIVE,STUDY DAY 8,8,1585,INSOMNIA,INSOMNIA,PSYCHIATRIC DISORDERS,MODERATE,N,NONE,NONE,REMOTELY,"NOT YET RESOLVED, NO CHANGE",,,,,,,,2001,,5," ",
NIDA-CTN-0001,AE,01_034039,2001,9,ACTIVE,STUDY DAY 9,9,1586,INSOMNIA,INSOMNIA,PSYCHIATRIC DISORDERS,MODERATE,N,NONE,NONE,REMOTELY,"NOT YET RESOLVED, NO CHANGE",,,,,,,,2001,,5," ",
NIDA-CTN-0001,AE,01_034039,2001,10,ACTIVE,STUDY DAY 10,10,1587,INSOMNIA,INSOMNIA,PSYCHIATRIC DISORDERS,MODERATE,N,NONE,NONE,REMOTELY,"NOT YET RESOLVED, NO CHANGE",,,,,,,,2001,,5," ",
NIDA-CTN-0001,AE,01_034039,2001,11,ACTIVE,STUDY DAY 11,11,1588,INSOMNIA,INSOMNIA,PSYCHIATRIC DISORDERS,MODERATE,N,NONE,NONE,REMOTELY,"NOT YET RESOLVED, BUT IMPROVING",,,,,,,,2001,,5," ",
NIDA-CTN-0001,AE,01_034039,2001,12,ACTIVE,STUDY DAY 12,12,1589,INSOMNIA,INSOMNIA,PSYCHIATRIC DISORDERS,MILD,N,NONE,NONE,REMOTELY,"NOT YET RESOLVED, BUT IMPROVING",,,,,,,,2001,,5," ",
NIDA-CTN-0001,AE,01_034039,2001,13,ACTIVE,STUDY DAY 13,13,1590,INSOMNIA,INSOMNIA,PSYCHIATRIC DISORDERS,MILD,N,NONE,NONE,REMOTELY,"RESOLVED, NO SEQUELAE",,,,,,,,2001,2001,5,12,
NIDA-CTN-0001,AE,01_034039,2001,14,ACTIVE,STUDY DAY 14,14,1591,INSOMNIA,INSOMNIA,PSYCHIATRIC DISORDERS,MILD,N,NONE,NONE,REMOTELY,"NOT YET RESOLVED, NO CHANGE",,,,,,,,2001,,13," ",
NIDA-CTN-0001,AE,01_034039,2001,59,FOLLOW-UP 1,FOLLOW-UP 1,15,1592,INSOMNIA,INSOMNIA,PSYCHIATRIC DISORDERS,MILD,N,NONE,NONE,REMOTELY,"NOT YET RESOLVED, BUT IMPROVING",,,,,,,,2001,,13," ",
NIDA-CTN-0001,AE,01_034039,2001,4,ACTIVE,STUDY DAY 4,4,1593,NERVOUSNESS,NERVOUSNESS,PSYCHIATRIC DISORDERS,MILD,N,NONE,NONE,REMOTELY,"RESOLVED, NO SEQUELAE",,,,,,,,2001,2001,4,4,
NIDA-CTN-0001,AE,01_034960,2001,1,ACTIVE,STUDY DAY 1,1,1121,ANXIETY,ANXIETY NEC,PSYCHIATRIC DISORDERS,SEVERE,N,NONE,THERAPY PHARMACOLOGY (OTC OR RX),DEFINITELY NOT,"RESOLVED, NO SEQUELAE",,,,,,,Y,2001,2001,-3,1,
NIDA-CTN-0001,AE,01_034960,2001,11,ACTIVE,STUDY DAY 11,11,1122,ANXIETY,ANXIETY NEC,PSYCHIATRIC DISORDERS,MODERATE,N,NONE,NONE,REMOTELY,"RESOLVED, NO SEQUELAE",,,,,,,,2001,2001,10,13,
NIDA-CTN-0001,AE,01_034960,2001,1,ACTIVE,STUDY DAY 1,1,1123,BACK PAIN,BACK PAIN,MUSCULOSKELETAL AND CONNECTIVE TISSUE DISORDERS,SEVERE,N,NONE,NONE,DEFINITELY NOT,"RESOLVED, NO SEQUELAE",,,,,,,,2001,2001,-3,1,
NIDA-CTN-0001,AE,01_034960,2002,30,FOLLOW-UP 1,FOLLOW-UP 1,15,1124,COLD SYMPTOMS,NASOPHARYNGITIS,INFECTIONS AND INFESTATIONS,MILD,N,NONE,THERAPY PHARMACOLOGY (OTC OR RX),DEFINITELY NOT,"NOT YET RESOLVED, NO CHANGE",,,,,,,Y,2002,2002,29,30,
NIDA-CTN-0001,AE,01_034960,2001,1,ACTIVE,STUDY DAY 1,1,1125,DIARRHEA,DIARRHOEA NOS,GASTROINTESTINAL DISORDERS,MODERATE,N,NONE,THERAPY PHARMACOLOGY (OTC OR RX),DEFINITELY NOT,"RESOLVED, NO SEQUELAE",,,,,,,Y,2001,2001,-3,-1,
NIDA-CTN-0001,AE,01_034960,2001,4,ACTIVE,STUDY DAY 4,4,1126,HEADACHE,HEADACHE NOS,NERVOUS SYSTEM DISORDERS,MILD,N,NONE,THERAPY PHARMACOLOGY (OTC OR RX),REMOTELY,"RESOLVED, NO SEQUELAE",,,,,,,Y,2001,2001,3,3,
NIDA-CTN-0001,AE,01_034960,2001,5,ACTIVE,STUDY DAY 5,5,1127,HEADACHE,HEADACHE NOS,NERVOUS SYSTEM DISORDERS,MILD,N,NONE,THERAPY PHARMACOLOGY (OTC OR RX),POSSIBLY,"RESOLVED, NO SEQUELAE",,,,,,,Y,2001,2001,4,4,
NIDA-CTN-0001,AE,01_034960,2001,1,ACTIVE,STUDY DAY 1,1,1128,INSOMNIA,INSOMNIA,PSYCHIATRIC DISORDERS,SEVERE,N,NONE,THERAPY PHARMACOLOGY (OTC OR RX),DEFINITELY NOT,"RESOLVED, NO SEQUELAE",,,,,,,Y,2001,2001,-3,1,
NIDA-CTN-0001,AE,01_034960,2001,3,ACTIVE,STUDY DAY 3,3,1129,INSOMNIA,INSOMNIA,PSYCHIATRIC DISORDERS,MILD,N,NONE,THERAPY PHARMACOLOGY (OTC OR RX),REMOTELY,"RESOLVED, NO SEQUELAE",,,,,,,Y,2001,2001,2,2,
NIDA-CTN-0001,AE,01_034960,2001,4,ACTIVE,STUDY DAY 4,4,1130,INSOMNIA,INSOMNIA,PSYCHIATRIC DISORDERS,MILD,N,NONE,THERAPY PHARMACOLOGY (OTC OR RX),REMOTELY,"RESOLVED, NO SEQUELAE",,,,,,,Y,2001,2001,3,3,
NIDA-CTN-0001,AE,01_034960,2001,5,ACTIVE,STUDY DAY 5,5,1131,INSOMNIA,INSOMNIA,PSYCHIATRIC DISORDERS,MILD,N,NONE,THERAPY PHARMACOLOGY (OTC OR RX),REMOTELY,"RESOLVED, NO SEQUELAE",,,,,,,Y,2001,2001,4,4,
NIDA-CTN-0001,AE,01_034960,2001,1,ACTIVE,STUDY DAY 1,1,1132,KNEE PAIN,ARTHRALGIA,MUSCULOSKELETAL AND CONNECTIVE TISSUE DISORDERS,MODERATE,N,NONE,THERAPY PHARMACOLOGY (OTC OR RX),DEFINITELY NOT,"RESOLVED, NO SEQUELAE",,,,,,,Y,2001,2001,-3,1,
NIDA-CTN-0001,AE,01_034960,2001,8,ACTIVE,STUDY DAY 8,8,1133,POOR APPETITE,APPETITE DECREASED NOS,METABOLISM AND NUTRITION DISORDERS,MODERATE,N,NONE,NONE,REMOTELY,"RESOLVED, NO SEQUELAE",,,,,,,,2001,2001,7,8,
NIDA-CTN-0001,AE,01_034960,2001,1,ACTIVE,STUDY DAY 1,1,1134,SNEEZING,SNEEZING,"RESPIRATORY, THORACIC AND MEDIASTINAL DISORDERS",MILD,N,NONE,NONE,DEFINITELY NOT,"RESOLVED, NO SEQUELAE",,,,,,,,2001,2001,-3,1,
NIDA-CTN-0001,AE,01_034960,2001,1,ACTIVE,STUDY DAY 1,1,1135,SWEATING,SWEATING INCREASED,SKIN AND SUBCUTANEOUS TISSUE DISORDERS,MODERATE,N,NONE,NONE,DEFINITELY NOT,"RESOLVED, NO SEQUELAE",,,,,,,Y,2001,2001,-3,1,
NIDA-CTN-0001,AE,01_035136,2001,44,FOLLOW-UP 1,FOLLOW-UP 1,15,583,ANXIETY,ANXIETY NEC,PSYCHIATRIC DISORDERS,MODERATE,N,NONE,THERAPY PHARMACOLOGY (OTC OR RX),UNKNOWN,"RESOLVED, NO SEQUELAE",,,,,,,Y,2001,2001,15,44,
NIDA-CTN-0001,AE,01_035136,2001,7,ACTIVE,STUDY DAY 7,7,584,GENERALIZED PAIN,PAIN,GENERAL DISORDERS AND ADMINISTRATION SITE CONDITIONS,MILD,N,NONE,THERAPY PHARMACOLOGY (OTC OR RX),POSSIBLY,"RESOLVED, NO SEQUELAE",,,,,,,Y,2001,2001,6,9,
NIDA-CTN-0001,AE,01_035136,2001,3,ACTIVE,STUDY DAY 3,3,585,HEADACHE,HEADACHE,NERVOUS SYSTEM DISORDERS,MILD,N,NONE,THERAPY PHARMACOLOGY (OTC OR RX),POSSIBLY,"RESOLVED, NO SEQUELAE",,,,,,,Y,2001,2001,2,3,
NIDA-CTN-0001,AE,01_035136,2001,7,ACTIVE,STUDY DAY 7,7,586,INS0MNIA,INSOMNIA,PSYCHIATRIC DISORDERS,MILD,N,NONE,THERAPY PHARMACOLOGY (OTC OR RX),POSSIBLY,"RESOLVED, NO SEQUELAE",,,,,,,Y,2001,2001,6,6,
NIDA-CTN-0001,AE,01_035136,2001,3,ACTIVE,STUDY DAY 3,3,587,INSOMNIA,INSOMNIA,PSYCHIATRIC DISORDERS,MODERATE,N,NONE,THERAPY PHARMACOLOGY (OTC OR RX),POSSIBLY,"RESOLVED, NO SEQUELAE",,,,,,,Y,2001,2001,2,3,
NIDA-CTN-0001,AE,01_035136,2001,4,ACTIVE,STUDY DAY 4,4,588,INSOMNIA,INSOMNIA,PSYCHIATRIC DISORDERS,MODERATE,N,NONE,THERAPY PHARMACOLOGY (OTC OR RX),POSSIBLY,"RESOLVED, NO SEQUELAE",,,,,,,Y,2001,2001,3,3,
NIDA-CTN-0001,AE,01_035136,2001,5,ACTIVE,STUDY DAY 5,5,589,INSOMNIA,INSOMNIA,PSYCHIATRIC DISORDERS,MILD,N,NONE,THERAPY PHARMACOLOGY (OTC OR RX),POSSIBLY,"RESOLVED, NO SEQUELAE",,,,,,,Y,2001,2001,4,4,
NIDA-CTN-0001,AE,01_035136,2001,6,ACTIVE,STUDY DAY 6,6,590,INSOMNIA,INSOMNIA,PSYCHIATRIC DISORDERS,MILD,N,NONE,THERAPY PHARMACOLOGY (OTC OR RX),POSSIBLY,"RESOLVED, NO SEQUELAE",,,,,,,Y,2001,2001,5,5,
NIDA-CTN-0001,AE,01_035136,2001,8,ACTIVE,STUDY DAY 8,8,591,INSOMNIA,INSOMNIA,PSYCHIATRIC DISORDERS,MILD,N,NONE,THERAPY PHARMACOLOGY (OTC OR RX),POSSIBLY,"RESOLVED, NO SEQUELAE",,,,,,,Y,2001,2001,7,7,
NIDA-CTN-0001,AE,01_035136,2001,9,ACTIVE,STUDY DAY 9,9,592,INSOMNIA,INSOMNIA,PSYCHIATRIC DISORDERS,MILD,N,NONE,THERAPY PHARMACOLOGY (OTC OR RX),POSSIBLY,"RESOLVED, NO SEQUELAE",,,,,,,Y,2001,2001,8,8,
NIDA-CTN-0001,AE,01_035136,2001,44,FOLLOW-UP 1,FOLLOW-UP 1,15,593,JOINT PAIN,ARTHRALGIA,MUSCULOSKELETAL AND CONNECTIVE TISSUE DISORDERS,MILD,N,NONE,NONE,UNKNOWN,"RESOLVED, NO SEQUELAE",,,,,,,Y,2001,2001,15,44,
NIDA-CTN-0001,AE,01_035136,2001,2,ACTIVE,STUDY DAY 2,2,594,LEG PAIN,PAIN IN EXTREMITY,MUSCULOSKELETAL AND CONNECTIVE TISSUE DISORDERS,MODERATE,N,NONE,THERAPY PHARMACOLOGY (OTC OR RX),POSSIBLY,"RESOLVED, NO SEQUELAE",,,,,,,Y,2001,2001,1,3,
NIDA-CTN-0001,AE,01_035136,2001,8,ACTIVE,STUDY DAY 8,8,595,RASH,RASH NOS,SKIN AND SUBCUTANEOUS TISSUE DISORDERS,MILD,N,NONE,NONE,REMOTELY,"RESOLVED, NO SEQUELAE",,,,,,,Y,2001,2001,7,9,
NIDA-CTN-0001,AE,01_035136,2001,44,FOLLOW-UP 1,FOLLOW-UP 1,15,596,RASH UPPER EXTREMITIES,RASH NOS,SKIN AND SUBCUTANEOUS TISSUE DISORDERS,MODERATE,N,NONE,THERAPY PHARMACOLOGY (OTC OR RX),UNKNOWN,"RESOLVED, NO SEQUELAE",,,,,,,Y,2001,2001,14,22,
NIDA-CTN-0001,AE,01_035136,2001,9,ACTIVE,STUDY DAY 9,9,597,RESTLESSNESS,RESTLESSNESS,PSYCHIATRIC DISORDERS,MODERATE,N,NONE,THERAPY PHARMACOLOGY (OTC OR RX),POSSIBLY,"RESOLVED, NO SEQUELAE",,,,,,,Y,2001,2001,8,8,
NIDA-CTN-0001,AE,01_036285,2002,8,ACTIVE,STUDY DAY 8,8,2265,ANXIETY,ANXIETY,PSYCHIATRIC DISORDERS,MILD,N,NONE,NONE,DEFINITELY NOT,"RESOLVED, NO SEQUELAE",,,,,,,,2002,2002,8,8,
NIDA-CTN-0001,AE,01_036285,2002,9,ACTIVE,STUDY DAY 9,9,2266,CHILLS,RIGORS,GENERAL DISORDERS AND ADMINISTRATION SITE CONDITIONS,MILD,N,NONE,NONE,DEFINITELY NOT,"RESOLVED, NO SEQUELAE",,,,,,,,2002,2002,9,10,
NIDA-CTN-0001,AE,01_036285,2002,12,ACTIVE,STUDY DAY 12,12,2267,CHILLS,RIGORS,GENERAL DISORDERS AND ADMINISTRATION SITE CONDITIONS,MILD,N,NONE,NONE,UNKNOWN,"RESOLVED, NO SEQUELAE",,,,,,,,2002,2002,12,13,
NIDA-CTN-0001,AE,01_036285,2002,3,ACTIVE,STUDY DAY 3,3,2268,COLD CHILLS,RIGORS,GENERAL DISORDERS AND ADMINISTRATION SITE CONDITIONS,MODERATE,N,NONE,NONE,DEFINITELY NOT,"NOT YET RESOLVED, BUT IMPROVING",,,,,,,,2002,2002,3,3,
NIDA-CTN-0001,AE,01_036285,2002,4,ACTIVE,STUDY DAY 4,4,2269,COLD CHILLS,RIGORS,GENERAL DISORDERS AND ADMINISTRATION SITE CONDITIONS,MILD,N,NONE,NONE,DEFINITELY NOT,"RESOLVED, NO SEQUELAE",,,,,,,Y,2002,2002,3,5,
NIDA-CTN-0001,AE,01_036285,2002,4,ACTIVE,STUDY DAY 4,4,2270,CONSTIPATION,CONSTIPATION,GASTROINTESTINAL DISORDERS,MODERATE,N,NONE,THERAPY PHARMACOLOGY (OTC OR RX),POSSIBLY,"RESOLVED, NO SEQUELAE",,,,,,,Y,2002,2002,4,4,
NIDA-CTN-0001,AE,01_036285,2002,2,ACTIVE,STUDY DAY 2,2,2271,DECREASED APPETITE,DECREASED APPETITE,METABOLISM AND NUTRITION DISORDERS,MODERATE,N,NONE,NONE,DEFINITELY NOT,"RESOLVED, NO SEQUELAE",,,,,,,,2002,2002,2,3,
NIDA-CTN-0001,AE,01_036285,2002,2,ACTIVE,STUDY DAY 2,2,2272,DEPRESSION,DEPRESSION,PSYCHIATRIC DISORDERS,MILD,N,NONE,NONE,DEFINITELY NOT,"RESOLVED, NO SEQUELAE",,,,,,,,2002,2002,2,6,
NIDA-CTN-0001,AE,01_036285,2002,12,ACTIVE,STUDY DAY 12,12,2273,DEPRESSION,DEPRESSION,PSYCHIATRIC DISORDERS,MILD,N,NONE,NONE,UNKNOWN,"RESOLVED, NO SEQUELAE",,,,,,,,2002,2002,12,14,
NIDA-CTN-0001,AE,01_036285,2002,4,ACTIVE,STUDY DAY 4,4,2274,DROWSINESS,SOMNOLENCE,NERVOUS SYSTEM DISORDERS,MODERATE,N,NONE,NONE,PROBABLY,"RESOLVED, NO SEQUELAE",,,,,,,Y,2002,2002,3,5,
NIDA-CTN-0001,AE,01_036285,2002,1,ACTIVE,STUDY DAY 1,1,2275,FATIGUE,FATIGUE,GENERAL DISORDERS AND ADMINISTRATION SITE CONDITIONS,SEVERE,N,NONE,NONE,DEFINITELY NOT,"RESOLVED, NO SEQUELAE",,,,,,,,2002,2002,1,2,
NIDA-CTN-0001,AE,01_036285,2002,2,ACTIVE,STUDY DAY 2,2,2276,IRRITABILITY,IRRITABILITY,PSYCHIATRIC DISORDERS,MODERATE,N,NONE,NONE,DEFINITELY NOT,"NOT YET RESOLVED, BUT IMPROVING",,,,,,,,2002,2002,2,2,
NIDA-CTN-0001,AE,01_036285,2002,3,ACTIVE,STUDY DAY 3,3,2277,IRRITABILITY,IRRITABILITY,PSYCHIATRIC DISORDERS,MILD,N,NONE,NONE,DEFINITELY NOT,"RESOLVED, NO SEQUELAE",,,,,,,,2002,2002,3,3,
NIDA-CTN-0001,AE,01_036285,2002,8,ACTIVE,STUDY DAY 8,8,2278,IRRITABILITY,IRRITABILITY,PSYCHIATRIC DISORDERS,MILD,N,NONE,NONE,DEFINITELY NOT,"RESOLVED, NO SEQUELAE",,,,,,,,2002,2002,8,8,
NIDA-CTN-0001,AE,01_036285,2002,33,FOLLOW-UP 1,FOLLOW-UP 1,15,2279,IRRITABILITY,IRRITABILITY,PSYCHIATRIC DISORDERS,MILD,N,NONE,NONE,DEFINITELY NOT,UNKNOWN,,,,,,,,2002,,33," ",
NIDA-CTN-0001,AE,01_036285,2002,12,ACTIVE,STUDY DAY 12,12,2280,IRRITIABILITY,IRRITABILITY,PSYCHIATRIC DISORDERS,MILD,N,NONE,NONE,UNKNOWN,"RESOLVED, NO SEQUELAE",,,,,,,,2002,2002,12,14,
NIDA-CTN-0001,AE,01_036285,2002,8,ACTIVE,STUDY DAY 8,8,2281,RIGHT SHOULDER PAIN,ARTHRALGIA,MUSCULOSKELETAL AND CONNECTIVE TISSUE DISORDERS,MODERATE,N,NONE,THERAPY PHARMACOLOGY (OTC OR RX),DEFINITELY NOT,"RESOLVED, NO SEQUELAE",,,,,,,Y,2002,2002,8,33,
NIDA-CTN-0001,AE,01_036285,2002,7,ACTIVE,STUDY DAY 7,7,2282,RT. SHOULDER PAIN,ARTHRALGIA,MUSCULOSKELETAL AND CONNECTIVE TISSUE DISORDERS,MILD,N,DISCONTINUED PERMANENTLY,THERAPY PHARMACOLOGY (OTC OR RX),UNKNOWN,"NOT YET RESOLVED, WORSENING",,,,,,,Y,2002,,7," ",
NIDA-CTN-0001,AE,01_036285,2002,9,ACTIVE,STUDY DAY 9,9,2283,RUNNY NOSE,RHINORRHOEA,"RESPIRATORY, THORACIC AND MEDIASTINAL DISORDERS",MILD,N,NONE,NONE,UNKNOWN,"RESOLVED, NO SEQUELAE",,,,,,,,2002,2002,9,10,
NIDA-CTN-0001,AE,01_036285,2002,11,ACTIVE,STUDY DAY 11,11,2284,RUNNY NOSE,RHINORRHOEA,"RESPIRATORY, THORACIC AND MEDIASTINAL DISORDERS",MILD,N,NONE,NONE,DEFINITELY NOT,"RESOLVED, NO SEQUELAE",,,,,,,,2002,2002,11,11,
NIDA-CTN-0001,AE,01_036285,2002,33,FOLLOW-UP 1,FOLLOW-UP 1,15,2285,RUNNY NOSE,RHINORRHOEA,"RESPIRATORY, THORACIC AND MEDIASTINAL DISORDERS",MILD,N,NONE,NONE,DEFINITELY NOT,UNKNOWN,,,,,,,,2002,,32," ",
NIDA-CTN-0001,AE,01_036285,2002,2,ACTIVE,STUDY DAY 2,2,2286,SLEEPLESSNESS,INSOMNIA,PSYCHIATRIC DISORDERS,MILD,N,NONE,NONE,DEFINITELY NOT,"RESOLVED, NO SEQUELAE",,,,,,,,2002,2002,2,3,
NIDA-CTN-0001,AE,01_036285,2002,33,FOLLOW-UP 1,FOLLOW-UP 1,15,2287,WATERY EYES,LACRIMATION INCREASED,EYE DISORDERS,MILD,N,NONE,NONE,DEFINITELY NOT,UNKNOWN,,,,,,,,2002,,32," ",
NIDA-CTN-0001,AE,01_037378,2001,2,ACTIVE,STUDY DAY 2,2,2150,ANXIETY,ANXIETY,PSYCHIATRIC DISORDERS,MODERATE,N,NONE,NONE,DEFINITELY,"RESOLVED, NO SEQUELAE",,,,,,,Y,2001,2001,1,7,
NIDA-CTN-0001,AE,01_037378,2001,13,ACTIVE,STUDY DAY 13,13,2151,BACK PAIN,BACK PAIN,MUSCULOSKELETAL AND CONNECTIVE TISSUE DISORDERS,MILD,N,NONE,THERAPY PHARMACOLOGY (OTC OR RX),DEFINITELY NOT,"RESOLVED, NO SEQUELAE",,,,,,,Y,2001,2001,12,13,
NIDA-CTN-0001,AE,01_037378,2001,31,FOLLOW-UP 1,FOLLOW-UP 1,15,2152,FLU,INFLUENZA,INFECTIONS AND INFESTATIONS,MILD,N,NONE,NONE,DEFINITELY NOT,"RESOLVED, NO SEQUELAE",,,,,,,,2001,2001,21,23,
NIDA-CTN-0001,AE,01_037378,2001,1,ACTIVE,STUDY DAY 1,1,2153,HEADACHE,HEADACHE,NERVOUS SYSTEM DISORDERS,MILD,N,NONE,NONE,DEFINITELY NOT,"RESOLVED, NO SEQUELAE",,,,,,,,2001,2001,1,2,
NIDA-CTN-0001,AE,01_037378,2001,8,ACTIVE,STUDY DAY 8,8,2154,HIP PAIN,ARTHRALGIA,MUSCULOSKELETAL AND CONNECTIVE TISSUE DISORDERS,MODERATE,N,NONE,THERAPY PHARMACOLOGY (OTC OR RX),DEFINITELY NOT,"RESOLVED, NO SEQUELAE",,,,,,,Y,2001,2001,8,9,
NIDA-CTN-0001,AE,01_037378,2001,2,ACTIVE,STUDY DAY 2,2,2155,INSOMNIA,INSOMNIA,PSYCHIATRIC DISORDERS,MODERATE,N,NONE,THERAPY PHARMACOLOGY (OTC OR RX),DEFINITELY,"RESOLVED, NO SEQUELAE",,,,,,,Y,2001,2001,1,6,
NIDA-CTN-0001,AE,01_037378,2001,2,ACTIVE,STUDY DAY 2,2,2156,KNEE PAIN,ARTHRALGIA,MUSCULOSKELETAL AND CONNECTIVE TISSUE DISORDERS,MILD,N,NONE,THERAPY PHARMACOLOGY (OTC OR RX),DEFINITELY NOT,"RESOLVED, NO SEQUELAE",,,,,,,Y,2001,2001,2,7,
NIDA-CTN-0001,AE,01_037378,2001,13,ACTIVE,STUDY DAY 13,13,2157,KNEE PAIN,ARTHRALGIA,MUSCULOSKELETAL AND CONNECTIVE TISSUE DISORDERS,MILD,N,NONE,THERAPY PHARMACOLOGY (OTC OR RX),DEFINITELY NOT,"RESOLVED, NO SEQUELAE",,,,,,,Y,2001,2001,12,13,
NIDA-CTN-0001,AE,01_037378,2001,3,ACTIVE,STUDY DAY 3,3,2158,MUSCLE ACHES,MYALGIA,MUSCULOSKELETAL AND CONNECTIVE TISSUE DISORDERS,MILD,N,NONE,NONE,DEFINITELY NOT,"RESOLVED, NO SEQUELAE",,,,,,,,2001,2001,3,7,
NIDA-CTN-0001,AE,01_037378,2001,2,ACTIVE,STUDY DAY 2,2,2159,RUNNY NOSE,RHINORRHOEA,"RESPIRATORY, THORACIC AND MEDIASTINAL DISORDERS",MODERATE,N,NONE,NONE THERAPY PHARMACOLOGY (OTC OR RX),DEFINITELY,"RESOLVED, NO SEQUELAE",,,,,,,Y,2001,2001,2,3,
NIDA-CTN-0001,AE,01_037378,2001,4,ACTIVE,STUDY DAY 4,4,2160,WEIGHT LOSS,WEIGHT DECREASED,INVESTIGATIONS,MILD,N,NONE,NONE,POSSIBLY,"RESOLVED, NO SEQUELAE",,,,,,,,2001,2001,4,9,
NIDA-CTN-0001,AE,01_037769,2002,1,ACTIVE,STUDY DAY 1,1,2288,ABDOMINAL CRAMPS,ABDOMINAL PAIN,GASTROINTESTINAL DISORDERS,MILD,N,NONE,NONE,DEFINITELY NOT,"NOT YET RESOLVED, WORSENING",,,,,,,,2002,2002,1,2,
NIDA-CTN-0001,AE,01_037769,2002,2,ACTIVE,STUDY DAY 2,2,2289,ABDOMINAL CRAMPS,ABDOMINAL PAIN,GASTROINTESTINAL DISORDERS,MODERATE,N,NONE,THERAPY PHARMACOLOGY (OTC OR RX),DEFINITELY NOT,"NOT YET RESOLVED, BUT IMPROVING",,,,,,,Y,2002,2002,2,3,
NIDA-CTN-0001,AE,01_037769,2002,3,ACTIVE,STUDY DAY 3,3,2290,ABDOMINAL CRAMPS,ABDOMINAL PAIN,GASTROINTESTINAL DISORDERS,MILD,N,NONE,THERAPY PHARMACOLOGY (OTC OR RX),POSSIBLY,"RESOLVED, NO SEQUELAE",,,,,,,Y,2002,2002,3,3,
NIDA-CTN-0001,AE,01_037769,2002,6,ACTIVE,STUDY DAY 6,6,2291,ABDOMINAL CRAMPS,ABDOMINAL PAIN,GASTROINTESTINAL DISORDERS,MILD,N,NONE,NONE,POSSIBLY,"RESOLVED, NO SEQUELAE",,,,,,,,2002,2002,6,7,
NIDA-CTN-0001,AE,01_037769,2002,4,ACTIVE,STUDY DAY 4,4,2292,ANXIETY,ANXIETY,PSYCHIATRIC DISORDERS,SEVERE,N,NONE,THERAPY PHARMACOLOGY (OTC OR RX),DEFINITELY NOT,"NOT YET RESOLVED, BUT IMPROVING",,,,,,,Y,2002,2002,3,5,
NIDA-CTN-0001,AE,01_037769,2002,5,ACTIVE,STUDY DAY 5,5,2293,ANXIETY,ANXIETY,PSYCHIATRIC DISORDERS,MODERATE,N,NONE,THERAPY PHARMACOLOGY (OTC OR RX),DEFINITELY NOT,"NOT YET RESOLVED, BUT IMPROVING",,,,,,,Y,2002,2002,5,7,
NIDA-CTN-0001,AE,01_037769,2002,7,ACTIVE,STUDY DAY 7,7,2294,ANXIETY,ANXIETY,PSYCHIATRIC DISORDERS,MILD,N,NONE,THERAPY PHARMACOLOGY (OTC OR RX),DEFINITELY NOT,"RESOLVED, NO SEQUELAE",,,,,,,Y,2002,2002,7,8,
NIDA-CTN-0001,AE,01_037769,2002,2,ACTIVE,STUDY DAY 2,2,2295,DECREASED APPETITE,DECREASED APPETITE,METABOLISM AND NUTRITION DISORDERS,SEVERE,N,NONE,THERAPY PHARMACOLOGY (OTC OR RX),DEFINITELY NOT,"RESOLVED, NO SEQUELAE",,,,,,,Y,2002,2002,2,6,
NIDA-CTN-0001,AE,01_037769,2002,3,ACTIVE,STUDY DAY 3,3,2296,DEHYDRATION,DEHYDRATION,METABOLISM AND NUTRITION DISORDERS,MILD,N,NONE,THERAPY NON-PHARMACOLOGY,DEFINITELY NOT,"NOT YET RESOLVED, WORSENING",,,,,,,Y,2002,2002,3,4,
NIDA-CTN-0001,AE,01_037769,2002,4,ACTIVE,STUDY DAY 4,4,2297,DEHYDRATION,DEHYDRATION,METABOLISM AND NUTRITION DISORDERS,MODERATE,N,NONE,THERAPY NON-PHARMACOLOGY,DEFINITELY NOT,"NOT YET RESOLVED, BUT IMPROVING",,,,,,,Y,2002,2002,4,5,
NIDA-CTN-0001,AE,01_037769,2002,5,ACTIVE,STUDY DAY 5,5,2298,DEHYDRATION,DEHYDRATION,METABOLISM AND NUTRITION DISORDERS,MILD,N,NONE,THERAPY NON-PHARMACOLOGY,DEFINITELY NOT,"RESOLVED, NO SEQUELAE",,,,,,,Y,2002,2002,5,6,
NIDA-CTN-0001,AE,01_037769,2002,3,ACTIVE,STUDY DAY 3,3,2299,DEPRESSION,DEPRESSION,PSYCHIATRIC DISORDERS,MILD,N,NONE,NONE,DEFINITELY NOT,"NOT YET RESOLVED, WORSENING",,,,,,,Y,2002,2002,3,4,
NIDA-CTN-0001,AE,01_037769,2002,4,ACTIVE,STUDY DAY 4,4,2300,DEPRESSION,DEPRESSION,PSYCHIATRIC DISORDERS,SEVERE,N,NONE,NONE,DEFINITELY NOT,"NOT YET RESOLVED, BUT IMPROVING",,,,,,,,2002,2002,4,6,
NIDA-CTN-0001,AE,01_037769,2002,6,ACTIVE,STUDY DAY 6,6,2301,DEPRESSION,DEPRESSION,PSYCHIATRIC DISORDERS,MODERATE,N,NONE,NONE,DEFINITELY NOT,"NOT YET RESOLVED, BUT IMPROVING",,,,,,,,2002,2002,6,7,
NIDA-CTN-0001,AE,01_037769,2002,7,ACTIVE,STUDY DAY 7,7,2302,DEPRESSION,DEPRESSION,PSYCHIATRIC DISORDERS,MILD,N,NONE,NONE,DEFINITELY NOT,"RESOLVED, NO SEQUELAE",,,,,,,Y,2002,2002,7,8,
NIDA-CTN-0001,AE,01_037769,2002,2,ACTIVE,STUDY DAY 2,2,2303,DIFFUSE ACHINESS,PAIN,GENERAL DISORDERS AND ADMINISTRATION SITE CONDITIONS,SEVERE,N,NONE,THERAPY PHARMACOLOGY (OTC OR RX),DEFINITELY NOT,"NOT YET RESOLVED, BUT IMPROVING",,,,,,,Y,2002,2002,2,3,
NIDA-CTN-0001,AE,01_037769,2002,4,ACTIVE,STUDY DAY 4,4,2304,DIFFUSE ACHINESS,PAIN,GENERAL DISORDERS AND ADMINISTRATION SITE CONDITIONS,MODERATE,N,NONE,THERAPY PHARMACOLOGY (OTC OR RX),DEFINITELY NOT,"RESOLVED, NO SEQUELAE",,,,,,,Y,2002,2002,3,7,
NIDA-CTN-0001,AE,01_037769,2002,2,ACTIVE,STUDY DAY 2,2,2305,DRY HEAVES,RETCHING,GASTROINTESTINAL DISORDERS,SEVERE,N,NONE,THERAPY PHARMACOLOGY (OTC OR RX),POSSIBLY,"RESOLVED, NO SEQUELAE",,,,,,,Y,2002,2002,2,3,
NIDA-CTN-0001,AE,01_037769,2002,3,ACTIVE,STUDY DAY 3,3,2306,FITFUL SLEEP,INSOMNIA,PSYCHIATRIC DISORDERS,MODERATE,N,NONE,NONE,DEFINITELY NOT,"NOT YET RESOLVED, WORSENING",,,,,,,Y,2002,2002,3,3,
NIDA-CTN-0001,AE,01_037769,2002,4,ACTIVE,STUDY DAY 4,4,2307,FITFUL SLEEP,INSOMNIA,PSYCHIATRIC DISORDERS,SEVERE,N,NONE,NONE,DEFINITELY NOT,"NOT YET RESOLVED, BUT IMPROVING",,,,,,,Y,2002,2002,3,7,
NIDA-CTN-0001,AE,01_037769,2002,7,ACTIVE,STUDY DAY 7,7,2308,FITFUL SLEEP,INSOMNIA,PSYCHIATRIC DISORDERS,MILD,N,NONE,THERAPY PHARMACOLOGY (OTC OR RX),DEFINITELY NOT,UNKNOWN,,,,,,,Y,2002,,7," ",
NIDA-CTN-0001,AE,01_037769,2002,2,ACTIVE,STUDY DAY 2,2,2309,HOT AND COLD FLASHES,FEELING HOT AND COLD,GENERAL DISORDERS AND ADMINISTRATION SITE CONDITIONS,SEVERE,N,NONE,NONE,DEFINITELY NOT,"NOT YET RESOLVED, BUT IMPROVING",,,,,,,Y,2002,2002,2,3,
NIDA-CTN-0001,AE,01_037769,2002,3,ACTIVE,STUDY DAY 3,3,2310,HOT AND COLD FLASHES,FEELING HOT AND COLD,GENERAL DISORDERS AND ADMINISTRATION SITE CONDITIONS,MODERATE,N,NONE,THERAPY PHARMACOLOGY (OTC OR RX),DEFINITELY NOT,"NOT YET RESOLVED, BUT IMPROVING",,,,,,,Y,2002,2002,3,3,
NIDA-CTN-0001,AE,01_037769,2002,4,ACTIVE,STUDY DAY 4,4,2311,HOT AND COLD FLASHES,FEELING HOT AND COLD,GENERAL DISORDERS AND ADMINISTRATION SITE CONDITIONS,MILD,N,NONE,NONE,DEFINITELY NOT,"NOT YET RESOLVED, WORSENING",,,,,,,Y,2002,2002,3,5,
NIDA-CTN-0001,AE,01_037769,2002,5,ACTIVE,STUDY DAY 5,5,2312,HOT AND COLD FLASHES,FEELING HOT AND COLD,GENERAL DISORDERS AND ADMINISTRATION SITE CONDITIONS,SEVERE,N,NONE,NONE,DEFINITELY NOT,"NOT YET RESOLVED, BUT IMPROVING",,,,,,,Y,2002,2002,5,7,
NIDA-CTN-0001,AE,01_037769,2002,7,ACTIVE,STUDY DAY 7,7,2313,HOT AND COLD FLASHES,FEELING HOT AND COLD,GENERAL DISORDERS AND ADMINISTRATION SITE CONDITIONS,MODERATE,N,NONE,NONE,DEFINITELY NOT,"RESOLVED, NO SEQUELAE",,,,,,,Y,2002,2002,7,8,
NIDA-CTN-0001,AE,01_037769,2002,2,ACTIVE,STUDY DAY 2,2,2314,IRRITABILITY,IRRITABILITY,PSYCHIATRIC DISORDERS,SEVERE,N,NONE,NONE,DEFINITELY NOT,"NOT YET RESOLVED, BUT IMPROVING",,,,,,,Y,2002,2002,2,3,
NIDA-CTN-0001,AE,01_037769,2002,3,ACTIVE,STUDY DAY 3,3,2315,IRRITABILITY,IRRITABILITY,PSYCHIATRIC DISORDERS,MODERATE,N,NONE,THERAPY PHARMACOLOGY (OTC OR RX),DEFINITELY NOT,"NOT YET RESOLVED, WORSENING",,,,,,,Y,2002,2002,3,5,
NIDA-CTN-0001,AE,01_037769,2002,5,ACTIVE,STUDY DAY 5,5,2316,IRRITABILITY,IRRITABILITY,PSYCHIATRIC DISORDERS,SEVERE,N,NONE,THERAPY PHARMACOLOGY (OTC OR RX),DEFINITELY NOT,"NOT YET RESOLVED, BUT IMPROVING",,,,,,,Y,2002,2002,5,7,
NIDA-CTN-0001,AE,01_037769,2002,7,ACTIVE,STUDY DAY 7,7,2317,IRRITABILITY,IRRITABILITY,PSYCHIATRIC DISORDERS,MILD,N,NONE,THERAPY PHARMACOLOGY (OTC OR RX),DEFINITELY NOT,"RESOLVED, NO SEQUELAE",,,,,,,Y,2002,2002,7,8,
NIDA-CTN-0001,AE,01_037769,2002,5,ACTIVE,STUDY DAY 5,5,2318,JOINT PAIN,ARTHRALGIA,MUSCULOSKELETAL AND CONNECTIVE TISSUE DISORDERS,MILD,N,NONE,NONE,DEFINITELY NOT,"RESOLVED, NO SEQUELAE",,,,,,,,2002,2002,5,6,
NIDA-CTN-0001,AE,01_037769,2002,3,ACTIVE,STUDY DAY 3,3,2319,NAUSEA,NAUSEA,GASTROINTESTINAL DISORDERS,MODERATE,N,NONE,THERAPY PHARMACOLOGY (OTC OR RX),POSSIBLY,"NOT YET RESOLVED, BUT IMPROVING",,,,,,,Y,2002,2002,3,3,
NIDA-CTN-0001,AE,01_037769,2002,5,ACTIVE,STUDY DAY 5,5,2320,NAUSEA,NAUSEA,GASTROINTESTINAL DISORDERS,MILD,N,NONE,NONE,DEFINITELY NOT,"RESOLVED, NO SEQUELAE",,,,,,,,2002,2002,4,6,
NIDA-CTN-0001,AE,01_037769,2002,6,ACTIVE,STUDY DAY 6,6,2321,NIGHT SWEATS,NIGHT SWEATS,SKIN AND SUBCUTANEOUS TISSUE DISORDERS,MODERATE,N,NONE,NONE,DEFINITELY NOT,"RESOLVED, NO SEQUELAE",,,,,,,,2002,2002,6,7,
NIDA-CTN-0001,AE,01_037769,2002,2,ACTIVE,STUDY DAY 2,2,2322,RESTLESSNESS,RESTLESSNESS,PSYCHIATRIC DISORDERS,MODERATE,N,NONE,NONE,DEFINITELY NOT,"NOT YET RESOLVED, WORSENING",,,,,,,,2002,2002,2,4,
NIDA-CTN-0001,AE,01_037769,2002,4,ACTIVE,STUDY DAY 4,4,2323,RESTLESSNESS,RESTLESSNESS,PSYCHIATRIC DISORDERS,SEVERE,N,NONE,THERAPY PHARMACOLOGY (OTC OR RX),DEFINITELY NOT,"RESOLVED, NO SEQUELAE",,,,,,,Y,2002,2002,4,6,
NIDA-CTN-0001,AE,01_037769,2002,1,ACTIVE,STUDY DAY 1,1,2324,RUNNY NOSE,RHINORRHOEA,"RESPIRATORY, THORACIC AND MEDIASTINAL DISORDERS",MILD,N,NONE,NONE,DEFINITELY NOT,"NOT YET RESOLVED, WORSENING",,,,,,,,2002,2002,1,2,
NIDA-CTN-0001,AE,01_037769,2002,2,ACTIVE,STUDY DAY 2,2,2325,RUNNY NOSE,RHINORRHOEA,"RESPIRATORY, THORACIC AND MEDIASTINAL DISORDERS",SEVERE,N,NONE,NONE,DEFINITELY NOT,"NOT YET RESOLVED, BUT IMPROVING",,,,,,,,2002,2002,2,3,
NIDA-CTN-0001,AE,01_037769,2002,3,ACTIVE,STUDY DAY 3,3,2326,RUNNY NOSE,RHINORRHOEA,"RESPIRATORY, THORACIC AND MEDIASTINAL DISORDERS",MILD,N,NONE,NONE,DEFINITELY NOT,"NOT YET RESOLVED, WORSENING",,,,,,,Y,2002,2002,3,5,
NIDA-CTN-0001,AE,01_037769,2002,5,ACTIVE,STUDY DAY 5,5,2327,RUNNY NOSE,RHINORRHOEA,"RESPIRATORY, THORACIC AND MEDIASTINAL DISORDERS",SEVERE,N,NONE,NONE,DEFINITELY NOT,"RESOLVED, NO SEQUELAE",,,,,,,,2002,2002,5,6,
NIDA-CTN-0001,AE,01_037769,2002,14,ACTIVE,STUDY DAY 14,14,2328,RUNNY NOSE,RHINORRHOEA,"RESPIRATORY, THORACIC AND MEDIASTINAL DISORDERS",MILD,N,NONE,NONE,DEFINITELY NOT,UNKNOWN,,,,,,,,2002,,12," ",
NIDA-CTN-0001,AE,01_037769,2002,2,ACTIVE,STUDY DAY 2,2,2329,SWEATING,HYPERHIDROSIS,SKIN AND SUBCUTANEOUS TISSUE DISORDERS,SEVERE,N,NONE,NONE,DEFINITELY NOT,"NOT YET RESOLVED, BUT IMPROVING",,,,,,,,2002,2002,2,3,
NIDA-CTN-0001,AE,01_037769,2002,3,ACTIVE,STUDY DAY 3,3,2330,SWEATING,HYPERHIDROSIS,SKIN AND SUBCUTANEOUS TISSUE DISORDERS,MODERATE,N,NONE,NONE,DEFINITELY NOT,"RESOLVED, NO SEQUELAE",,,,,,,,2002,2002,3,3,
NIDA-CTN-0001,AE,01_037769,2002,2,ACTIVE,STUDY DAY 2,2,2331,TEARING EYES,LACRIMATION INCREASED,EYE DISORDERS,SEVERE,N,NONE,NONE,DEFINITELY NOT,"NOT YET RESOLVED, BUT IMPROVING",,,,,,,,2002,2002,2,3,
NIDA-CTN-0001,AE,01_037769,2002,3,ACTIVE,STUDY DAY 3,3,2332,TEARING EYES,LACRIMATION INCREASED,EYE DISORDERS,MILD,N,NONE,NONE,DEFINITELY NOT,"RESOLVED, NO SEQUELAE",,,,,,,,2002,2002,3,3,
NIDA-CTN-0001,AE,01_037769,2002,2,ACTIVE,STUDY DAY 2,2,2333,VOMITING,VOMITING,GASTROINTESTINAL DISORDERS,SEVERE,N,NONE,THERAPY PHARMACOLOGY (OTC OR RX),POSSIBLY,"RESOLVED, NO SEQUELAE",,,,,,,Y,2002,2002,2,3,
NIDA-CTN-0001,AE,01_037769,2002,5,ACTIVE,STUDY DAY 5,5,2334,VOMITING,VOMITING,GASTROINTESTINAL DISORDERS,MODERATE,N,NONE,THERAPY PHARMACOLOGY (OTC OR RX),POSSIBLY,"RESOLVED, NO SEQUELAE",,,,,,,Y,2002,2002,5,6,
NIDA-CTN-0001,AE,01_037769,2002,3,ACTIVE,STUDY DAY 3,3,2335,WEAKNESS,ASTHENIA,GENERAL DISORDERS AND ADMINISTRATION SITE CONDITIONS,MODERATE,N,NONE,THERAPY NON-PHARMACOLOGY,DEFINITELY NOT,"RESOLVED, NO SEQUELAE",,,,,,,Y,2002,2002,3,7,
NIDA-CTN-0001,AE,01_037973,2002,1,ACTIVE,STUDY DAY 1,1,1336,ANXIETY,ANXIETY,PSYCHIATRIC DISORDERS,SEVERE,N,NONE,THERAPY PHARMACOLOGY (OTC OR RX),DEFINITELY NOT,"RESOLVED, NO SEQUELAE",,,,,,,Y,2002,2002,-1,11,
NIDA-CTN-0001,AE,01_037973,2002,30,FOLLOW-UP 1,FOLLOW-UP 1,15,1337,ANXIETY,ANXIETY NEC,PSYCHIATRIC DISORDERS,SEVERE,N,NONE,THERAPY PHARMACOLOGY (OTC OR RX),DEFINITELY NOT,"NOT YET RESOLVED, WORSENING",,,,,,,Y,2002,2002,14,30,
NIDA-CTN-0001,AE,01_037973,2002,1,ACTIVE,STUDY DAY 1,1,1338,DEPRESSED MOOD,DEPRESSED MOOD,PSYCHIATRIC DISORDERS,SEVERE,N,NONE,THERAPY PHARMACOLOGY (OTC OR RX),DEFINITELY NOT,"RESOLVED, NO SEQUELAE",,,,,,,Y,2002,2002,-1,2,
NIDA-CTN-0001,AE,01_037973,2002,1,ACTIVE,STUDY DAY 1,1,1339,DIARRHEA,DIARRHOEA NOS,GASTROINTESTINAL DISORDERS,SEVERE,N,NONE,NONE THERAPY PHARMACOLOGY (OTC OR RX),DEFINITELY NOT,"RESOLVED, NO SEQUELAE",,,,,,,Y,2002,2002,-1,2,
NIDA-CTN-0001,AE,01_037973,2002,30,FOLLOW-UP 1,FOLLOW-UP 1,15,1340,DIARRHEA,DIARRHOEA NOS,GASTROINTESTINAL DISORDERS,SEVERE,N,NONE,THERAPY PHARMACOLOGY (OTC OR RX),DEFINITELY NOT,"NOT YET RESOLVED, NO CHANGE",,,,,,,Y,2002,2002,14,30,
NIDA-CTN-0001,AE,01_037973,2002,3,ACTIVE,STUDY DAY 3,3,1341,DILATED PUPILS,MYDRIASIS,EYE DISORDERS,MODERATE,N,NONE,NONE,DEFINITELY NOT,"RESOLVED, NO SEQUELAE",,,,,,,Y,2002,2002,3,7,
NIDA-CTN-0001,AE,01_037973,2002,2,ACTIVE,STUDY DAY 2,2,1342,HEADACHE,HEADACHE NOS,NERVOUS SYSTEM DISORDERS,MODERATE,N,NONE,THERAPY PHARMACOLOGY (OTC OR RX),POSSIBLY,"RESOLVED, NO SEQUELAE",,,,,,,Y,2002,2002,1,3,
NIDA-CTN-0001,AE,01_037973,2002,4,ACTIVE,STUDY DAY 4,4,1343,HEADACHE,HEADACHE NOS,NERVOUS SYSTEM DISORDERS,MILD,N,NONE,NONE,POSSIBLY,"RESOLVED, NO SEQUELAE",,,,,,,,2002,2002,3,3,
NIDA-CTN-0001,AE,01_037973,2002,5,ACTIVE,STUDY DAY 5,5,1344,HEADACHE,HEADACHE NOS,NERVOUS SYSTEM DISORDERS,MILD,N,NONE,NONE,POSSIBLY,"RESOLVED, NO SEQUELAE",,,,,,,,2002,2002,4,4,
NIDA-CTN-0001,AE,01_037973,2002,1,ACTIVE,STUDY DAY 1,1,1345,INSOMNIA,INSOMNIA,PSYCHIATRIC DISORDERS,SEVERE,N,NONE,THERAPY PHARMACOLOGY (OTC OR RX),DEFINITELY NOT,"RESOLVED, NO SEQUELAE",,,,,,,Y,2002,2002,-1,2,
NIDA-CTN-0001,AE,01_037973,2002,3,ACTIVE,STUDY DAY 3,3,1346,INSOMNIA,INSOMNIA,PSYCHIATRIC DISORDERS,MODERATE,N,NONE,THERAPY PHARMACOLOGY (OTC OR RX),REMOTELY,"RESOLVED, NO SEQUELAE",,,,,,,Y,2002,2002,2,12,
NIDA-CTN-0001,AE,01_037973,2002,30,FOLLOW-UP 1,FOLLOW-UP 1,15,1347,INSOMNIA,INSOMNIA,PSYCHIATRIC DISORDERS,SEVERE,N,NONE,THERAPY PHARMACOLOGY (OTC OR RX),DEFINITELY NOT,"NOT YET RESOLVED, NO CHANGE",,,,,,,Y,2002,2002,14,30,
NIDA-CTN-0001,AE,01_037973,2002,1,ACTIVE,STUDY DAY 1,1,1348,LOSS OF APPETITE,ANOREXIA,METABOLISM AND NUTRITION DISORDERS,SEVERE,N,NONE,NONE,DEFINITELY NOT,"RESOLVED, NO SEQUELAE",,,,,,,Y,2002,2002,-1,1,
NIDA-CTN-0001,AE,01_037973,2002,1,ACTIVE,STUDY DAY 1,1,1349,NASAL STUFFINESS,NASAL CONGESTION,"RESPIRATORY, THORACIC AND MEDIASTINAL DISORDERS",MODERATE,N,NONE,NONE,DEFINITELY NOT,"RESOLVED, NO SEQUELAE",,,,,,,Y,2002,2002,-1,1,
NIDA-CTN-0001,AE,01_037973,2002,2,ACTIVE,STUDY DAY 2,2,1350,NIGHT SWEATS,NIGHT SWEATS,SKIN AND SUBCUTANEOUS TISSUE DISORDERS,MODERATE,N,NONE,THERAPY NON-PHARMACOLOGY,REMOTELY,"RESOLVED, NO SEQUELAE",,,,,,,Y,2002,2002,1,10,
NIDA-CTN-0001,AE,01_037973,2002,1,ACTIVE,STUDY DAY 1,1,1351,RESTLESSNESS,RESTLESSNESS,PSYCHIATRIC DISORDERS,SEVERE,N,NONE,THERAPY PHARMACOLOGY (OTC OR RX),DEFINITELY NOT,"RESOLVED, NO SEQUELAE",,,,,,,Y,2002,2002,-1,2,
NIDA-CTN-0001,AE,01_037973,2002,4,ACTIVE,STUDY DAY 4,4,1353,SWEATING,SWEATING INCREASED,SKIN AND SUBCUTANEOUS TISSUE DISORDERS,SEVERE,N,NONE,NONE,POSSIBLY,"RESOLVED, NO SEQUELAE",,,,,,,,2002,2002,3,8,
NIDA-CTN-0001,AE,01_037973,2002,1,ACTIVE,STUDY DAY 1,1,1354,TACHYCARDIA,TACHYCARDIA NOS,CARDIAC DISORDERS,SEVERE,N,NONE,THERAPY PHARMACOLOGY (OTC OR RX) THERAPY NON-PHARMACOLOGY,DEFINITELY NOT,"NOT YET RESOLVED, BUT IMPROVING",,,,,,,Y,2002,2002,-1,14,
NIDA-CTN-0001,AE,01_037973,2002,30,FOLLOW-UP 1,FOLLOW-UP 1,15,1355,TOOTH EXTRACTION,TOOTH EXTRACTION NOS,SURGICAL AND MEDICAL PROCEDURES,MODERATE,N,NONE,THERAPY PHARMACOLOGY (OTC OR RX),DEFINITELY NOT,"RESOLVED, NO SEQUELAE",,,,,,,Y,2002,2002,23,23,
NIDA-CTN-0001,AE,01_037973,2002,1,ACTIVE,STUDY DAY 1,1,1356,TOOTH PAIN,TOOTHACHE,GASTROINTESTINAL DISORDERS,MILD,N,NONE,THERAPY PHARMACOLOGY (OTC OR RX),DEFINITELY NOT,"NOT YET RESOLVED, WORSENING",,,,,,,Y,2002,2002,-1,14,
NIDA-CTN-0001,AE,01_037973,2002,184,FOLLOW-UP 3,FOLLOW-UP 3,17,1352,TYLENOL OVERDOSE,DRUG TOXICITY,"INJURY, POISONING AND PROCEDURAL COMPLICATIONS",LETHAL,Y,NONE,,DEFINITELY NOT,DEATH,,,Y,,,,,2002,2002,125,141,
NIDA-CTN-0001,AE,01_038386,2001,2,ACTIVE,STUDY DAY 2,2,2067,ANXIETY,ANXIETY,PSYCHIATRIC DISORDERS,MODERATE,N,NONE,THERAPY PHARMACOLOGY (OTC OR RX),DEFINITELY NOT,"RESOLVED, NO SEQUELAE",,,,,,,Y,2001,2001,2,2,
NIDA-CTN-0001,AE,01_038386,2001,2,ACTIVE,STUDY DAY 2,2,2068,DIARRHEA,DIARRHOEA,GASTROINTESTINAL DISORDERS,MODERATE,N,NONE,THERAPY PHARMACOLOGY (OTC OR RX),DEFINITELY NOT,"RESOLVED, NO SEQUELAE",,,,,,,Y,2001,2001,2,2,
NIDA-CTN-0001,AE,01_038386,2001,11,ACTIVE,STUDY DAY 11,11,2069,KNEE ANKLE PAIN,ARTHRALGIA,MUSCULOSKELETAL AND CONNECTIVE TISSUE DISORDERS,MILD,N,NONE,THERAPY PHARMACOLOGY (OTC OR RX),DEFINITELY NOT,"RESOLVED, NO SEQUELAE",,,,,,,Y,2001,2001,11,14,
NIDA-CTN-0001,AE,01_038386,2001,2,ACTIVE,STUDY DAY 2,2,2070,NAUSEA,NAUSEA,GASTROINTESTINAL DISORDERS,MODERATE,N,NONE,THERAPY PHARMACOLOGY (OTC OR RX),DEFINITELY NOT,"RESOLVED, NO SEQUELAE",,,,,,,Y,2001,2001,2,2,
NIDA-CTN-0001,AE,01_038386,2001,2,ACTIVE,STUDY DAY 2,2,2071,RESTLESSNESS,RESTLESSNESS,PSYCHIATRIC DISORDERS,MODERATE,N,NONE,THERAPY PHARMACOLOGY (OTC OR RX),DEFINITELY NOT,"RESOLVED, NO SEQUELAE",,,,,,,Y,2001,2001,2,2,
NIDA-CTN-0001,AE,01_038465,2002,2,ACTIVE,STUDY DAY 2,2,797,ANXIETY,ANXIETY,PSYCHIATRIC DISORDERS,MILD,N,NONE,THERAPY PHARMACOLOGY (OTC OR RX),POSSIBLY,"RESOLVED, NO SEQUELAE",,,,,,,Y,2002,2002,1,4,
NIDA-CTN-0001,AE,01_038465,2002,1,ACTIVE,STUDY DAY 1,1,798,CHILLS,RIGORS,GENERAL DISORDERS AND ADMINISTRATION SITE CONDITIONS,MODERATE,N,NONE,NONE,REMOTELY,"RESOLVED, NO SEQUELAE",,,,,,,,2002,2002,1,4,
NIDA-CTN-0001,AE,01_038465,2002,1,ACTIVE,STUDY DAY 1,1,799,HEADACHE,HEADACHE NOS,NERVOUS SYSTEM DISORDERS,MODERATE,N,NONE,NONE,REMOTELY,"RESOLVED, NO SEQUELAE",,,,,,,,2002,2002,1,4,
NIDA-CTN-0001,AE,01_038465,2002,2,ACTIVE,STUDY DAY 2,2,800,INSOMNIA,INSOMNIA,PSYCHIATRIC DISORDERS,MILD,N,NONE,THERAPY PHARMACOLOGY (OTC OR RX),POSSIBLY,"RESOLVED, NO SEQUELAE",,,,,,,Y,2002,2002,1,3,
NIDA-CTN-0001,AE,01_038465,2002,2,ACTIVE,STUDY DAY 2,2,801,NAUSEA,NAUSEA,GASTROINTESTINAL DISORDERS,MODERATE,N,NONE,NONE,POSSIBLY,"RESOLVED, NO SEQUELAE",,,,,,,Y,2002,2002,1,13,
NIDA-CTN-0001,AE,01_038465,2002,8,ACTIVE,STUDY DAY 8,8,802,POOR APPETITE,APPETITE DECREASED NOS,METABOLISM AND NUTRITION DISORDERS,MILD,N,NONE,THERAPY PHARMACOLOGY (OTC OR RX),POSSIBLY,"RESOLVED, NO SEQUELAE",,,,,,,Y,2002,2002,8,10,
NIDA-CTN-0001,AE,01_038465,2002,1,ACTIVE,STUDY DAY 1,1,803,TREMORS,TREMOR,NERVOUS SYSTEM DISORDERS,MODERATE,N,NONE,NONE,REMOTELY,"RESOLVED, NO SEQUELAE",,,,,,,,2002,2002,1,4,
NIDA-CTN-0001,AE,01_038465,2002,8,ACTIVE,STUDY DAY 8,8,804,VOMITTING,VOMITING NOS,GASTROINTESTINAL DISORDERS,MILD,N,NONE,THERAPY PHARMACOLOGY (OTC OR RX),POSSIBLY,"RESOLVED, NO SEQUELAE",,,,,,,Y,2002,2002,8,10,
NIDA-CTN-0001,AE,01_038661,2002,12,ACTIVE,STUDY DAY 12,12,1297,ABDOMINAL CRAMPS,ABDOMINAL PAIN NOS,GASTROINTESTINAL DISORDERS,MILD,N,NONE,NONE,POSSIBLY,"RESOLVED, NO SEQUELAE",,,,,,,Y,2002,2002,11,11,
NIDA-CTN-0001,AE,01_038661,2002,1,ACTIVE,STUDY DAY 1,1,1298,ANXIETY,ANXIETY,PSYCHIATRIC DISORDERS,MODERATE,N,NONE,NONE,DEFINITELY NOT,"RESOLVED, NO SEQUELAE",,,,,,,Y,2002,2002,-2,1,
NIDA-CTN-0001,AE,01_038661,2002,2,ACTIVE,STUDY DAY 2,2,1299,ANXIETY,ANXIETY NEC,PSYCHIATRIC DISORDERS,SEVERE,N,NONE,THERAPY PHARMACOLOGY (OTC OR RX),REMOTELY,"NOT YET RESOLVED, NO CHANGE",,,,,,,Y,2002,2002,1,14,
NIDA-CTN-0001,AE,01_038661,2002,30,FOLLOW-UP 1,FOLLOW-UP 1,15,1300,ANXIETY,ANXIETY,PSYCHIATRIC DISORDERS,MODERATE,N,NONE,THERAPY PHARMACOLOGY (OTC OR RX),REMOTELY,"RESOLVED, NO SEQUELAE",,,,,,,Y,2002,2002,14,21,
NIDA-CTN-0001,AE,01_038661,2002,1,ACTIVE,STUDY DAY 1,1,1301,BACK PAIN,BACK PAIN,MUSCULOSKELETAL AND CONNECTIVE TISSUE DISORDERS,SEVERE,N,NONE,NONE THERAPY PHARMACOLOGY (OTC OR RX) THERAPY NON-PHARMACOLOGY,DEFINITELY NOT,"RESOLVED, NO SEQUELAE",,,,,,,Y,2002,2002,-4,3,
NIDA-CTN-0001,AE,01_038661,2002,1,ACTIVE,STUDY DAY 1,1,1302,COLD FLASHES,FEELING COLD,GENERAL DISORDERS AND ADMINISTRATION SITE CONDITIONS,SEVERE,N,NONE,NONE,DEFINITELY NOT,"RESOLVED, NO SEQUELAE",,,,,,,,2002,2002,-4,2,
NIDA-CTN-0001,AE,01_038661,2002,30,FOLLOW-UP 1,FOLLOW-UP 1,15,1303,COLD SYMPTOMS,NASOPHARYNGITIS,INFECTIONS AND INFESTATIONS,SEVERE,N,NONE,NONE,DEFINITELY NOT,"RESOLVED, NO SEQUELAE",,,,,,,,2002,2002,14,18,
NIDA-CTN-0001,AE,01_038661,2002,30,FOLLOW-UP 1,FOLLOW-UP 1,15,1304,CRYING,CRYING,PSYCHIATRIC DISORDERS,MODERATE,N,NONE,THERAPY NON-PHARMACOLOGY,REMOTELY,"RESOLVED, NO SEQUELAE",,,,,,,Y,2002,2002,14,21,
NIDA-CTN-0001,AE,01_038661,2002,7,ACTIVE,STUDY DAY 7,7,1305,DEPRESSION,DEPRESSION,PSYCHIATRIC DISORDERS,MILD,N,NONE,NONE,DEFINITELY NOT,UNKNOWN,,,,,,,Y,2002,2002,7,14,
NIDA-CTN-0001,AE,01_038661,2002,30,FOLLOW-UP 1,FOLLOW-UP 1,15,1306,DEPRESSION,DEPRESSION,PSYCHIATRIC DISORDERS,MODERATE,N,NONE,THERAPY PHARMACOLOGY (OTC OR RX),REMOTELY,"RESOLVED, NO SEQUELAE",,,,,,,Y,2002,2002,14,21,
NIDA-CTN-0001,AE,01_038661,2002,1,ACTIVE,STUDY DAY 1,1,1307,DIARRHEA,DIARRHOEA NOS,GASTROINTESTINAL DISORDERS,SEVERE,N,NONE,NONE THERAPY PHARMACOLOGY (OTC OR RX),DEFINITELY NOT,"RESOLVED, NO SEQUELAE",,,,,,,Y,2002,2002,-4,3,
NIDA-CTN-0001,AE,01_038661,2002,3,ACTIVE,STUDY DAY 3,3,1308,DIFFICULTY CONCENTRATING,DISTURBANCE IN ATTENTION,NERVOUS SYSTEM DISORDERS,MODERATE,N,NONE,NONE,REMOTELY,"RESOLVED, NO SEQUELAE",,,,,,,,2002,2002,3,3,
NIDA-CTN-0001,AE,01_038661,2002,3,ACTIVE,STUDY DAY 3,3,1309,DROWSINESS,SOMNOLENCE,NERVOUS SYSTEM DISORDERS,MODERATE,N,NONE,NONE,REMOTELY,"RESOLVED, NO SEQUELAE",,,,,,,,2002,2002,3,3,
NIDA-CTN-0001,AE,01_038661,2002,1,ACTIVE,STUDY DAY 1,1,1310,DRY MOUTH,DRY MOUTH,GASTROINTESTINAL DISORDERS,MODERATE,N,NONE,NONE,REMOTELY,"RESOLVED, NO SEQUELAE",,,,,,,,2002,2002,-3,14,
NIDA-CTN-0001,AE,01_038661,2002,1,ACTIVE,STUDY DAY 1,1,1311,HEADACHE,HEADACHE NOS,NERVOUS SYSTEM DISORDERS,SEVERE,N,NONE,NONE,DEFINITELY NOT,"RESOLVED, NO SEQUELAE",,,,,,,,2002,2002,-4,-2,
NIDA-CTN-0001,AE,01_038661,2002,2,ACTIVE,STUDY DAY 2,2,1312,HEADACHE,HEADACHE NOS,NERVOUS SYSTEM DISORDERS,SEVERE,N,NONE,THERAPY PHARMACOLOGY (OTC OR RX),POSSIBLY,"RESOLVED, NO SEQUELAE",,,,,,,Y,2002,2002,1,1,
NIDA-CTN-0001,AE,01_038661,2002,3,ACTIVE,STUDY DAY 3,3,1313,HEADACHE,HEADACHE NOS,NERVOUS SYSTEM DISORDERS,MODERATE,N,NONE,THERAPY PHARMACOLOGY (OTC OR RX),POSSIBLY,"RESOLVED, NO SEQUELAE",,,,,,,Y,2002,2002,2,2,
NIDA-CTN-0001,AE,01_038661,2002,4,ACTIVE,STUDY DAY 4,4,1314,HEADACHE,HEADACHE NOS,NERVOUS SYSTEM DISORDERS,MODERATE,N,NONE,THERAPY PHARMACOLOGY (OTC OR RX),POSSIBLY,"RESOLVED, NO SEQUELAE",,,,,,,Y,2002,2002,3,3,
NIDA-CTN-0001,AE,01_038661,2002,5,ACTIVE,STUDY DAY 5,5,1315,HIP JOINT PAIN,ARTHRALGIA,MUSCULOSKELETAL AND CONNECTIVE TISSUE DISORDERS,MODERATE,N,NONE,NONE,REMOTELY,"RESOLVED, NO SEQUELAE",,,,,,,,2002,2002,4,8,
