STUDYID,DOMAIN,USUBJID,DSDY,DSSEQ,DSTERM,DSOCCUR,DSDECOD,DSCAT,VISIT,VISITNUM,EPOCH,DSDTC,DSSTDTC,DSSTDY
NIDA-CTN-0001,DS,01_000579,14,1,PARTICIPANT WITHDREW FROM STUDY,Y,PARTICIPANT WITHDREW FROM STUDY,DISPOSITION EVENT,STUDY DAY 14,14,ACTIVE,2001,2001,3
NIDA-CTN-0001,DS,01_001362,4,1,PARTICIPANT WITHDREW FROM STUDY,Y,PARTICIPANT WITHDREW FROM STUDY,DISPOSITION EVENT,STUDY DAY 4,4,ACTIVE,2001,2001,4
NIDA-CTN-0001,DS,01_001362,56,2,PARTICIPANT WITHDREW FROM STUDY,Y,PARTICIPANT WITHDREW FROM STUDY,DISPOSITION EVENT,FOLLOW-UP 1,15,ACTIVE,2001,2001,4
NIDA-CTN-0001,DS,01_001362,93,3,PARTICIPANT WITHDREW FROM STUDY,Y,PARTICIPANT WITHDREW FROM STUDY,DISPOSITION EVENT,FOLLOW-UP 2,16,ACTIVE,2002,2001,4
NIDA-CTN-0001,DS,01_001362,211,4,PARTICIPANT WITHDREW FROM STUDY,Y,PARTICIPANT WITHDREW FROM STUDY,DISPOSITION EVENT,FOLLOW-UP 3,17,ACTIVE,2002,2001,4
NIDA-CTN-0001,DS,01_001490,14,1,PARTICIPANT NO LONGER ATTENDS CLINIC,Y,PARTICIPANT NO LONGER ATTENDS CLINIC,DISPOSITION EVENT,STUDY DAY 14,14,ACTIVE,2001,2001,10
NIDA-CTN-0001,DS,01_002199,14,1,PARTICIPANT COMPLETED ACTIVE PHASE OF STUDY,Y,PARTICIPANT COMPLETED ACTIVE PHASE OF STUDY,DISPOSITION EVENT,STUDY DAY 14,14,ACTIVE,2001,2001,14
NIDA-CTN-0001,DS,01_002844,14,1,PARTICIPANT COMPLETED ACTIVE PHASE OF STUDY,Y,PARTICIPANT COMPLETED ACTIVE PHASE OF STUDY,DISPOSITION EVENT,STUDY DAY 14,14,ACTIVE,2001,2001,14
NIDA-CTN-0001,DS,01_003330,14,1,PARTICIPANT NO LONGER ATTENDS CLINIC,Y,PARTICIPANT NO LONGER ATTENDS CLINIC,DISPOSITION EVENT,STUDY DAY 14,14,ACTIVE,2001,2001,9
NIDA-CTN-0001,DS,01_003330,209,2,PARTICIPANT NO LONGER ATTENDS CLINIC,Y,PARTICIPANT NO LONGER ATTENDS CLINIC,DISPOSITION EVENT,FOLLOW-UP 3,17,ACTIVE,2002,2001,7
NIDA-CTN-0001,DS,01_003653,10,1,PARTICIPANT WITHDREW FROM STUDY,Y,PARTICIPANT WITHDREW FROM STUDY,DISPOSITION EVENT,STUDY DAY 10,10,ACTIVE,2002,2002,10
NIDA-CTN-0001,DS,01_005053," ",5,DEATH,N,DEATH,DISPOSITION EVENT,"BASELINE, ANY DAY PRIOR TO FIRST DOSE",0,SCREENING,2001,," "
NIDA-CTN-0001,DS,01_005053," ",2,DECLINED STUDY PARTICIPATION,N,DECLINED STUDY PARTICIPATION,DISPOSITION EVENT,"BASELINE, ANY DAY PRIOR TO FIRST DOSE",0,SCREENING,2001,," "
NIDA-CTN-0001,DS,01_005053," ",6,FAILED TO MEET INCLUSION CRITERIA OR MET EXCLUSION CRITERIA AS NOTED ABOVE,Y,FAILED TO MEET INCLUSION CRITERIA OR MET EXCLUSION CRITERIA AS NOTED ABOVE,DISPOSITION EVENT,"BASELINE, ANY DAY PRIOR TO FIRST DOSE",0,SCREENING,2001,," "
NIDA-CTN-0001,DS,01_005053," ",1,FAILED TO RETURN TO CLINIC,Y,FAILED TO RETURN TO CLINIC,DISPOSITION EVENT,"BASELINE, ANY DAY PRIOR TO FIRST DOSE",0,SCREENING,2001,," "
NIDA-CTN-0001,DS,01_005053," ",4,INCARCERATION (CURRENT OR PENDING),N,INCARCERATION (CURRENT OR PENDING),DISPOSITION EVENT,"BASELINE, ANY DAY PRIOR TO FIRST DOSE",0,SCREENING,2001,," "
NIDA-CTN-0001,DS,01_005053," ",3,MOVED FROM AREA (CURRENT OR PENDING),Y,MOVED FROM AREA (CURRENT OR PENDING),DISPOSITION EVENT,"BASELINE, ANY DAY PRIOR TO FIRST DOSE",0,SCREENING,2001,," "
NIDA-CTN-0001,DS,01_005163," ",5,DEATH,N,DEATH,DISPOSITION EVENT,"BASELINE, ANY DAY PRIOR TO FIRST DOSE",0,SCREENING,2002,," "
NIDA-CTN-0001,DS,01_005163," ",2,DECLINED STUDY PARTICIPATION,N,DECLINED STUDY PARTICIPATION,DISPOSITION EVENT,"BASELINE, ANY DAY PRIOR TO FIRST DOSE",0,SCREENING,2002,," "
NIDA-CTN-0001,DS,01_005163," ",6,FAILED TO MEET INCLUSION CRITERIA OR MET EXCLUSION CRITERIA AS NOTED ABOVE,N,FAILED TO MEET INCLUSION CRITERIA OR MET EXCLUSION CRITERIA AS NOTED ABOVE,DISPOSITION EVENT,"BASELINE, ANY DAY PRIOR TO FIRST DOSE",0,SCREENING,2002,," "
NIDA-CTN-0001,DS,01_005163," ",1,FAILED TO RETURN TO CLINIC,Y,FAILED TO RETURN TO CLINIC,DISPOSITION EVENT,"BASELINE, ANY DAY PRIOR TO FIRST DOSE",0,SCREENING,2002,," "
NIDA-CTN-0001,DS,01_005163," ",4,INCARCERATION (CURRENT OR PENDING),N,INCARCERATION (CURRENT OR PENDING),DISPOSITION EVENT,"BASELINE, ANY DAY PRIOR TO FIRST DOSE",0,SCREENING,2002,," "
NIDA-CTN-0001,DS,01_005163," ",3,MOVED FROM AREA (CURRENT OR PENDING),N,MOVED FROM AREA (CURRENT OR PENDING),DISPOSITION EVENT,"BASELINE, ANY DAY PRIOR TO FIRST DOSE",0,SCREENING,2002,," "
NIDA-CTN-0001,DS,01_006180,14,1,PARTICIPANT COMPLETED ACTIVE PHASE OF STUDY,Y,PARTICIPANT COMPLETED ACTIVE PHASE OF STUDY,DISPOSITION EVENT,STUDY DAY 14,14,ACTIVE,2001,2001,14
NIDA-CTN-0001,DS,01_006180,210,2,PARTICIPANT NO LONGER ATTENDS CLINIC,Y,PARTICIPANT NO LONGER ATTENDS CLINIC,DISPOSITION EVENT,FOLLOW-UP 3,17,ACTIVE,2002,2001,51
NIDA-CTN-0001,DS,01_006253,14,2,PARTICIPANT CAN NO LONGER ATTEND CLINIC,Y,PARTICIPANT CAN NO LONGER ATTEND CLINIC,DISPOSITION EVENT,STUDY DAY 14,14,ACTIVE,2002,2002,6
NIDA-CTN-0001,DS,01_006253,14,1,PARTICIPANT WITHDREW FROM STUDY,Y,PARTICIPANT WITHDREW FROM STUDY,DISPOSITION EVENT,STUDY DAY 14,14,ACTIVE,2002,2002,6
NIDA-CTN-0001,DS,01_006566,14,1,PARTICIPANT COMPLETED ACTIVE PHASE OF STUDY,Y,PARTICIPANT COMPLETED ACTIVE PHASE OF STUDY,DISPOSITION EVENT,STUDY DAY 14,14,ACTIVE,2001,2001,14
NIDA-CTN-0001,DS,01_006566,44,2,PARTICIPANT COMPLETED ACTIVE PHASE OF STUDY,Y,PARTICIPANT COMPLETED ACTIVE PHASE OF STUDY,DISPOSITION EVENT,FOLLOW-UP 1,15,ACTIVE,2002,2002,44
NIDA-CTN-0001,DS,01_006566,44,3,PARTICIPANT NO LONGER ATTENDS CLINIC,Y,PARTICIPANT NO LONGER ATTENDS CLINIC,DISPOSITION EVENT,FOLLOW-UP 1,15,ACTIVE,2002,2002,44
NIDA-CTN-0001,DS,01_008148,14,1,PARTICIPANT COMPLETED ACTIVE PHASE OF STUDY,Y,PARTICIPANT COMPLETED ACTIVE PHASE OF STUDY,DISPOSITION EVENT,STUDY DAY 14,14,ACTIVE,2001,2001,14
NIDA-CTN-0001,DS,01_009365,14,1,PARTICIPANT NO LONGER ATTENDS CLINIC,Y,PARTICIPANT NO LONGER ATTENDS CLINIC,DISPOSITION EVENT,STUDY DAY 14,14,ACTIVE,2001,2001,3
NIDA-CTN-0001,DS,01_009835," ",5,DEATH,N,DEATH,DISPOSITION EVENT,"BASELINE, ANY DAY PRIOR TO FIRST DOSE",0,SCREENING,2002,," "
NIDA-CTN-0001,DS,01_009835," ",2,DECLINED STUDY PARTICIPATION,N,DECLINED STUDY PARTICIPATION,DISPOSITION EVENT,"BASELINE, ANY DAY PRIOR TO FIRST DOSE",0,SCREENING,2002,," "
NIDA-CTN-0001,DS,01_009835," ",6,FAILED TO MEET INCLUSION CRITERIA OR MET EXCLUSION CRITERIA AS NOTED ABOVE,Y,FAILED TO MEET INCLUSION CRITERIA OR MET EXCLUSION CRITERIA AS NOTED ABOVE,DISPOSITION EVENT,"BASELINE, ANY DAY PRIOR TO FIRST DOSE",0,SCREENING,2002,," "
NIDA-CTN-0001,DS,01_009835," ",1,FAILED TO RETURN TO CLINIC,N,FAILED TO RETURN TO CLINIC,DISPOSITION EVENT,"BASELINE, ANY DAY PRIOR TO FIRST DOSE",0,SCREENING,2002,," "
NIDA-CTN-0001,DS,01_009835," ",4,INCARCERATION (CURRENT OR PENDING),N,INCARCERATION (CURRENT OR PENDING),DISPOSITION EVENT,"BASELINE, ANY DAY PRIOR TO FIRST DOSE",0,SCREENING,2002,," "
NIDA-CTN-0001,DS,01_009835," ",3,MOVED FROM AREA (CURRENT OR PENDING),N,MOVED FROM AREA (CURRENT OR PENDING),DISPOSITION EVENT,"BASELINE, ANY DAY PRIOR TO FIRST DOSE",0,SCREENING,2002,," "
NIDA-CTN-0001,DS,01_010909,14,1,PARTICIPANT COMPLETED ACTIVE PHASE OF STUDY,Y,PARTICIPANT COMPLETED ACTIVE PHASE OF STUDY,DISPOSITION EVENT,STUDY DAY 14,14,ACTIVE,2001,2001,14
NIDA-CTN-0001,DS,01_010909,389,2,PARTICIPANT COMPLETED ACTIVE PHASE OF STUDY,Y,PARTICIPANT COMPLETED ACTIVE PHASE OF STUDY,DISPOSITION EVENT,FOLLOW-UP 1,15,ACTIVE,2002,2002,42
NIDA-CTN-0001,DS,01_010909,389,3,PARTICIPANT NO LONGER ATTENDS CLINIC,Y,PARTICIPANT NO LONGER ATTENDS CLINIC,DISPOSITION EVENT,FOLLOW-UP 1,15,ACTIVE,2002,2002,42
NIDA-CTN-0001,DS,01_012272,14,1,PARTICIPANT WITHDREW FROM STUDY,Y,PARTICIPANT WITHDREW FROM STUDY,DISPOSITION EVENT,STUDY DAY 14,14,ACTIVE,2002,2002,3
NIDA-CTN-0001,DS,01_013066,14,1,PARTICIPANT COMPLETED ACTIVE PHASE OF STUDY,Y,PARTICIPANT COMPLETED ACTIVE PHASE OF STUDY,DISPOSITION EVENT,STUDY DAY 14,14,ACTIVE,2001,2001,14
NIDA-CTN-0001,DS,01_013066,373,2,PARTICIPANT COMPLETED ACTIVE PHASE OF STUDY,Y,PARTICIPANT COMPLETED ACTIVE PHASE OF STUDY,DISPOSITION EVENT,FOLLOW-UP 1,15,ACTIVE,2002,2002,30
NIDA-CTN-0001,DS,01_013066,373,3,PARTICIPANT NO LONGER ATTENDS CLINIC,Y,PARTICIPANT NO LONGER ATTENDS CLINIC,DISPOSITION EVENT,FOLLOW-UP 1,15,ACTIVE,2002,2002,30
NIDA-CTN-0001,DS,01_013173,29,3,DISCHARGED FOR OTHER (SPECIFY),Y,DISCHARGED FOR OTHER (SPECIFY),DISPOSITION EVENT,FOLLOW-UP 1,15,ACTIVE,2002,2001,14
NIDA-CTN-0001,DS,01_013173,14,1,PARTICIPANT COMPLETED ACTIVE PHASE OF STUDY,Y,PARTICIPANT COMPLETED ACTIVE PHASE OF STUDY,DISPOSITION EVENT,STUDY DAY 14,14,ACTIVE,2001,2001,14
NIDA-CTN-0001,DS,01_013173,29,2,PARTICIPANT COMPLETED ACTIVE PHASE OF STUDY,Y,PARTICIPANT COMPLETED ACTIVE PHASE OF STUDY,DISPOSITION EVENT,FOLLOW-UP 1,15,ACTIVE,2002,2001,14
NIDA-CTN-0001,DS,01_013173,119,4,PARTICIPANT COMPLETED ACTIVE PHASE OF STUDY,Y,PARTICIPANT COMPLETED ACTIVE PHASE OF STUDY,DISPOSITION EVENT,FOLLOW-UP 2,16,ACTIVE,2002,2001,14
NIDA-CTN-0001,DS,01_013173,210,6,PARTICIPANT COMPLETED ACTIVE PHASE OF STUDY,Y,PARTICIPANT COMPLETED ACTIVE PHASE OF STUDY,DISPOSITION EVENT,FOLLOW-UP 3,17,ACTIVE,2002,2001,14
NIDA-CTN-0001,DS,01_013173,119,5,PARTICIPANT IS IN A CONTROLLED ENVIRONMENT,Y,PARTICIPANT IS IN A CONTROLLED ENVIRONMENT,DISPOSITION EVENT,FOLLOW-UP 2,16,ACTIVE,2002,2001,14
NIDA-CTN-0001,DS,01_013173,210,7,PARTICIPANT IS IN A CONTROLLED ENVIRONMENT,Y,PARTICIPANT IS IN A CONTROLLED ENVIRONMENT,DISPOSITION EVENT,FOLLOW-UP 3,17,ACTIVE,2002,2001,14
NIDA-CTN-0001,DS,01_015578," ",1,FAILED TO MEET INCLUSION CRITERIA OR MET EXCLUSION CRITERIA AS NOTED ABOVE,Y,FAILED TO MEET INCLUSION CRITERIA OR MET EXCLUSION CRITERIA AS NOTED ABOVE,DISPOSITION EVENT,"BASELINE, ANY DAY PRIOR TO FIRST DOSE",0,SCREENING,2002,," "
NIDA-CTN-0001,DS,01_015991,13,1,PARTICIPANT COMPLETED ACTIVE PHASE OF STUDY,Y,PARTICIPANT COMPLETED ACTIVE PHASE OF STUDY,DISPOSITION EVENT,STUDY DAY 13,13,ACTIVE,2001,2001,14
NIDA-CTN-0001,DS,01_017348," ",1,FAILED TO MEET INCLUSION CRITERIA OR MET EXCLUSION CRITERIA AS NOTED ABOVE,Y,FAILED TO MEET INCLUSION CRITERIA OR MET EXCLUSION CRITERIA AS NOTED ABOVE,DISPOSITION EVENT,"BASELINE, ANY DAY PRIOR TO FIRST DOSE",0,SCREENING,2001,," "
NIDA-CTN-0001,DS,01_018076,1,1,ADMINISTRATIVELY WITHDRAWN,Y,ADMINISTRATIVELY WITHDRAWN,DISPOSITION EVENT,STUDY DAY 1,1,ACTIVE,2001,2001,1
NIDA-CTN-0001,DS,01_018415,14,1,PARTICIPANT COMPLETED ACTIVE PHASE OF STUDY,Y,PARTICIPANT COMPLETED ACTIVE PHASE OF STUDY,DISPOSITION EVENT,STUDY DAY 14,14,ACTIVE,2001,2001,14
NIDA-CTN-0001,DS,01_018599,190,3,PARTICIPANT COMPLETED ACTIVE PHASE OF STUDY,Y,PARTICIPANT COMPLETED ACTIVE PHASE OF STUDY,DISPOSITION EVENT,FOLLOW-UP 3,17,ACTIVE,2002,2002,190
NIDA-CTN-0001,DS,01_018599,190,4,PARTICIPANT NO LONGER ATTENDS CLINIC,Y,PARTICIPANT NO LONGER ATTENDS CLINIC,DISPOSITION EVENT,FOLLOW-UP 3,17,ACTIVE,2002,2002,190
NIDA-CTN-0001,DS,01_018599,3,1,VOLUNTARY TRANSFERRED TO ANOTHER TREATMENT PROGRAM (INDICATE TYPE),Y,VOLUNTARY TRANSFERRED TO ANOTHER TREATMENT PROGRAM (INDICATE TYPE),DISPOSITION EVENT,STUDY DAY 3,3,ACTIVE,2002,2002,3
NIDA-CTN-0001,DS,01_018599,3,2,VOLUNTARY TRANSFERRED TO ANOTHER TREATMENT PROGRAM-METHADONE,Y,VOLUNTARY TRANSFERRED TO ANOTHER TREATMENT PROGRAM-METHADONE,DISPOSITION EVENT,STUDY DAY 3,3,ACTIVE,2002,2002,3
NIDA-CTN-0001,DS,01_018881," ",5,DEATH,N,DEATH,DISPOSITION EVENT,"BASELINE, ANY DAY PRIOR TO FIRST DOSE",0,SCREENING,2001,," "
NIDA-CTN-0001,DS,01_018881," ",2,DECLINED STUDY PARTICIPATION,N,DECLINED STUDY PARTICIPATION,DISPOSITION EVENT,"BASELINE, ANY DAY PRIOR TO FIRST DOSE",0,SCREENING,2001,," "
NIDA-CTN-0001,DS,01_018881," ",6,FAILED TO MEET INCLUSION CRITERIA OR MET EXCLUSION CRITERIA AS NOTED ABOVE,Y,FAILED TO MEET INCLUSION CRITERIA OR MET EXCLUSION CRITERIA AS NOTED ABOVE,DISPOSITION EVENT,"BASELINE, ANY DAY PRIOR TO FIRST DOSE",0,SCREENING,2001,," "
NIDA-CTN-0001,DS,01_018881," ",1,FAILED TO RETURN TO CLINIC,N,FAILED TO RETURN TO CLINIC,DISPOSITION EVENT,"BASELINE, ANY DAY PRIOR TO FIRST DOSE",0,SCREENING,2001,," "
NIDA-CTN-0001,DS,01_018881," ",4,INCARCERATION (CURRENT OR PENDING),N,INCARCERATION (CURRENT OR PENDING),DISPOSITION EVENT,"BASELINE, ANY DAY PRIOR TO FIRST DOSE",0,SCREENING,2001,," "
NIDA-CTN-0001,DS,01_018881," ",3,MOVED FROM AREA (CURRENT OR PENDING),N,MOVED FROM AREA (CURRENT OR PENDING),DISPOSITION EVENT,"BASELINE, ANY DAY PRIOR TO FIRST DOSE",0,SCREENING,2001,," "
NIDA-CTN-0001,DS,01_019437,14,1,PARTICIPANT COMPLETED ACTIVE PHASE OF STUDY,Y,PARTICIPANT COMPLETED ACTIVE PHASE OF STUDY,DISPOSITION EVENT,STUDY DAY 14,14,ACTIVE,2002,2002,14
NIDA-CTN-0001,DS,01_020369,92,7,DISCHARGED FOR OTHER (SPECIFY),Y,DISCHARGED FOR OTHER (SPECIFY),DISPOSITION EVENT,FOLLOW-UP 2,16,ACTIVE,2001,2001,14
NIDA-CTN-0001,DS,01_020369,31,4,INPATIENT DETOX OR TREATMENT,Y,INPATIENT DETOX OR TREATMENT,DISPOSITION EVENT,FOLLOW-UP 1,15,ACTIVE,2001,2001,14
NIDA-CTN-0001,DS,01_020369,14,1,PARTICIPANT COMPLETED ACTIVE PHASE OF STUDY,Y,PARTICIPANT COMPLETED ACTIVE PHASE OF STUDY,DISPOSITION EVENT,STUDY DAY 14,14,ACTIVE,2001,2001,14
NIDA-CTN-0001,DS,01_020369,31,2,PARTICIPANT COMPLETED ACTIVE PHASE OF STUDY,Y,PARTICIPANT COMPLETED ACTIVE PHASE OF STUDY,DISPOSITION EVENT,FOLLOW-UP 1,15,ACTIVE,2001,2001,14
NIDA-CTN-0001,DS,01_020369,92,5,PARTICIPANT COMPLETED ACTIVE PHASE OF STUDY,Y,PARTICIPANT COMPLETED ACTIVE PHASE OF STUDY,DISPOSITION EVENT,FOLLOW-UP 2,16,ACTIVE,2001,2001,14
NIDA-CTN-0001,DS,01_020369,210,8,PARTICIPANT COMPLETED ACTIVE PHASE OF STUDY,Y,PARTICIPANT COMPLETED ACTIVE PHASE OF STUDY,DISPOSITION EVENT,FOLLOW-UP 3,17,ACTIVE,2002,2001,14
NIDA-CTN-0001,DS,01_020369,210,9,PARTICIPANT IS IN A CONTROLLED ENVIRONMENT,Y,PARTICIPANT IS IN A CONTROLLED ENVIRONMENT,DISPOSITION EVENT,FOLLOW-UP 3,17,ACTIVE,2002,2001,14
NIDA-CTN-0001,DS,01_020369,31,3,VOLUNTARY TRANSFERRED TO ANOTHER TREATMENT PROGRAM (INDICATE TYPE),Y,VOLUNTARY TRANSFERRED TO ANOTHER TREATMENT PROGRAM (INDICATE TYPE),DISPOSITION EVENT,FOLLOW-UP 1,15,ACTIVE,2001,2001,14
NIDA-CTN-0001,DS,01_020369,92,6,VOLUNTARY TRANSFERRED TO ANOTHER TREATMENT PROGRAM (INDICATE TYPE),Y,VOLUNTARY TRANSFERRED TO ANOTHER TREATMENT PROGRAM (INDICATE TYPE),DISPOSITION EVENT,FOLLOW-UP 2,16,ACTIVE,2001,2001,14
NIDA-CTN-0001,DS,01_021383," ",1,FAILED TO MEET INCLUSION CRITERIA OR MET EXCLUSION CRITERIA AS NOTED ABOVE,Y,FAILED TO MEET INCLUSION CRITERIA OR MET EXCLUSION CRITERIA AS NOTED ABOVE,DISPOSITION EVENT,"BASELINE, ANY DAY PRIOR TO FIRST DOSE",0,SCREENING,2001,," "
NIDA-CTN-0001,DS,01_021516,14,1,PARTICIPANT COMPLETED ACTIVE PHASE OF STUDY,Y,PARTICIPANT COMPLETED ACTIVE PHASE OF STUDY,DISPOSITION EVENT,STUDY DAY 14,14,ACTIVE,2001,2001,13
NIDA-CTN-0001,DS,01_021985,14,1,PARTICIPANT COMPLETED ACTIVE PHASE OF STUDY,Y,PARTICIPANT COMPLETED ACTIVE PHASE OF STUDY,DISPOSITION EVENT,STUDY DAY 14,14,ACTIVE,2001,2001,14
NIDA-CTN-0001,DS,01_023001,14,1,PARTICIPANT COMPLETED ACTIVE PHASE OF STUDY,Y,PARTICIPANT COMPLETED ACTIVE PHASE OF STUDY,DISPOSITION EVENT,STUDY DAY 14,14,ACTIVE,2001,2001,14
NIDA-CTN-0001,DS,01_023438,14,1,PARTICIPANT COMPLETED ACTIVE PHASE OF STUDY,Y,PARTICIPANT COMPLETED ACTIVE PHASE OF STUDY,DISPOSITION EVENT,STUDY DAY 14,14,ACTIVE,2001,2001,14
NIDA-CTN-0001,DS,01_023982,14,1,PARTICIPANT COMPLETED ACTIVE PHASE OF STUDY,Y,PARTICIPANT COMPLETED ACTIVE PHASE OF STUDY,DISPOSITION EVENT,STUDY DAY 14,14,ACTIVE,2001,2001,14
NIDA-CTN-0001,DS,01_024957,14,1,PARTICIPANT COMPLETED ACTIVE PHASE OF STUDY,Y,PARTICIPANT COMPLETED ACTIVE PHASE OF STUDY,DISPOSITION EVENT,STUDY DAY 14,14,ACTIVE,2001,2001,14
NIDA-CTN-0001,DS,01_026062," ",1,FAILED TO MEET INCLUSION CRITERIA OR MET EXCLUSION CRITERIA AS NOTED ABOVE,Y,FAILED TO MEET INCLUSION CRITERIA OR MET EXCLUSION CRITERIA AS NOTED ABOVE,DISPOSITION EVENT,"BASELINE, ANY DAY PRIOR TO FIRST DOSE",0,SCREENING,2001,," "
NIDA-CTN-0001,DS,01_027452,204,2,PARTICIPANT COMPLETED ACTIVE PHASE OF STUDY,Y,PARTICIPANT COMPLETED ACTIVE PHASE OF STUDY,DISPOSITION EVENT,FOLLOW-UP 3,17,ACTIVE,2002,2002,204
NIDA-CTN-0001,DS,01_027452,204,3,PARTICIPANT NO LONGER ATTENDS CLINIC,Y,PARTICIPANT NO LONGER ATTENDS CLINIC,DISPOSITION EVENT,FOLLOW-UP 3,17,ACTIVE,2002,2002,204
NIDA-CTN-0001,DS,01_027452,1,1,PARTICIPANT WITHDREW FROM STUDY,Y,PARTICIPANT WITHDREW FROM STUDY,DISPOSITION EVENT,STUDY DAY 1,1,ACTIVE,2002,2002,1
NIDA-CTN-0001,DS,01_027466,46,2,PARTICIPANT COMPLETED ACTIVE PHASE OF STUDY,Y,PARTICIPANT COMPLETED ACTIVE PHASE OF STUDY,DISPOSITION EVENT,FOLLOW-UP 1,15,ACTIVE,2002,2002,46
NIDA-CTN-0001,DS,01_027466,14,1,PARTICIPANT NO LONGER ATTENDS CLINIC,Y,PARTICIPANT NO LONGER ATTENDS CLINIC,DISPOSITION EVENT,STUDY DAY 14,14,ACTIVE,2001,2001,3
NIDA-CTN-0001,DS,01_027466,46,3,PARTICIPANT NO LONGER ATTENDS CLINIC,Y,PARTICIPANT NO LONGER ATTENDS CLINIC,DISPOSITION EVENT,FOLLOW-UP 1,15,ACTIVE,2002,2002,46
NIDA-CTN-0001,DS,01_027631,14,1,PARTICIPANT COMPLETED ACTIVE PHASE OF STUDY,Y,PARTICIPANT COMPLETED ACTIVE PHASE OF STUDY,DISPOSITION EVENT,STUDY DAY 14,14,ACTIVE,2001,2001,14
NIDA-CTN-0001,DS,01_027631,210,2,PARTICIPANT NO LONGER ATTENDS CLINIC,Y,PARTICIPANT NO LONGER ATTENDS CLINIC,DISPOSITION EVENT,FOLLOW-UP 3,17,ACTIVE,2002,2001,14
NIDA-CTN-0001,DS,01_028279," ",1,FAILED TO MEET INCLUSION CRITERIA OR MET EXCLUSION CRITERIA AS NOTED ABOVE,Y,FAILED TO MEET INCLUSION CRITERIA OR MET EXCLUSION CRITERIA AS NOTED ABOVE,DISPOSITION EVENT,"BASELINE, ANY DAY PRIOR TO FIRST DOSE",0,SCREENING,2001,," "
NIDA-CTN-0001,DS,01_029678,147,3,DEATH,Y,DEATH,DISPOSITION EVENT,FOLLOW-UP 3,17,ACTIVE,2002,2001,4
NIDA-CTN-0001,DS,01_029678,4,1,VOLUNTARY TRANSFERRED TO ANOTHER TREATMENT PROGRAM (INDICATE TYPE),Y,VOLUNTARY TRANSFERRED TO ANOTHER TREATMENT PROGRAM (INDICATE TYPE),DISPOSITION EVENT,STUDY DAY 4,4,ACTIVE,2001,2001,4
NIDA-CTN-0001,DS,01_029678,4,2,VOLUNTARY TRANSFERRED TO ANOTHER TREATMENT PROGRAM-METHADONE,Y,VOLUNTARY TRANSFERRED TO ANOTHER TREATMENT PROGRAM-METHADONE,DISPOSITION EVENT,STUDY DAY 4,4,ACTIVE,2001,2001,4
NIDA-CTN-0001,DS,01_030813," ",1,FAILED TO MEET INCLUSION CRITERIA OR MET EXCLUSION CRITERIA AS NOTED ABOVE,Y,FAILED TO MEET INCLUSION CRITERIA OR MET EXCLUSION CRITERIA AS NOTED ABOVE,DISPOSITION EVENT,"BASELINE, ANY DAY PRIOR TO FIRST DOSE",0,SCREENING,2002,," "
NIDA-CTN-0001,DS,01_033121,14,1,PARTICIPANT COMPLETED ACTIVE PHASE OF STUDY,Y,PARTICIPANT COMPLETED ACTIVE PHASE OF STUDY,DISPOSITION EVENT,STUDY DAY 14,14,ACTIVE,2002,2002,14
NIDA-CTN-0001,DS,01_033121,312,2,PARTICIPANT COMPLETED ACTIVE PHASE OF STUDY,Y,PARTICIPANT COMPLETED ACTIVE PHASE OF STUDY,DISPOSITION EVENT,FOLLOW-UP 1,15,ACTIVE,2002,2002,193
NIDA-CTN-0001,DS,01_033121,312,3,PARTICIPANT NO LONGER ATTENDS CLINIC,Y,PARTICIPANT NO LONGER ATTENDS CLINIC,DISPOSITION EVENT,FOLLOW-UP 1,15,ACTIVE,2002,2002,193
NIDA-CTN-0001,DS,01_033375,14,1,PARTICIPANT NO LONGER ATTENDS CLINIC,Y,PARTICIPANT NO LONGER ATTENDS CLINIC,DISPOSITION EVENT,STUDY DAY 14,14,ACTIVE,2001,2001,3
NIDA-CTN-0001,DS,01_033479,14,1,PARTICIPANT NO LONGER ATTENDS CLINIC,Y,PARTICIPANT NO LONGER ATTENDS CLINIC,DISPOSITION EVENT,STUDY DAY 14,14,ACTIVE,2001,2001,3
NIDA-CTN-0001,DS,01_033941,14,1,PARTICIPANT COMPLETED ACTIVE PHASE OF STUDY,Y,PARTICIPANT COMPLETED ACTIVE PHASE OF STUDY,DISPOSITION EVENT,STUDY DAY 14,14,ACTIVE,2002,2002,14
NIDA-CTN-0001,DS,01_033941,31,2,PARTICIPANT COMPLETED ACTIVE PHASE OF STUDY,Y,PARTICIPANT COMPLETED ACTIVE PHASE OF STUDY,DISPOSITION EVENT,FOLLOW-UP 1,15,ACTIVE,2002,," "
NIDA-CTN-0001,DS,01_033941,120,3,PARTICIPANT COMPLETED ACTIVE PHASE OF STUDY,Y,PARTICIPANT COMPLETED ACTIVE PHASE OF STUDY,DISPOSITION EVENT,FOLLOW-UP 2,16,ACTIVE,2002,," "
NIDA-CTN-0001,DS,01_033941,181,6,PARTICIPANT COMPLETED ACTIVE PHASE OF STUDY,Y,PARTICIPANT COMPLETED ACTIVE PHASE OF STUDY,DISPOSITION EVENT,FOLLOW-UP 3,17,ACTIVE,2002,," "
NIDA-CTN-0001,DS,01_033941,120,4,VOLUNTARY TRANSFERRED TO ANOTHER TREATMENT PROGRAM (INDICATE TYPE),Y,VOLUNTARY TRANSFERRED TO ANOTHER TREATMENT PROGRAM (INDICATE TYPE),DISPOSITION EVENT,FOLLOW-UP 2,16,ACTIVE,2002,," "
NIDA-CTN-0001,DS,01_033941,120,5,VOLUNTARY TRANSFERRED TO ANOTHER TREATMENT PROGRAM-THERAPEUTIC COMMUNITY,Y,VOLUNTARY TRANSFERRED TO ANOTHER TREATMENT PROGRAM-THERAPEUTIC COMMUNITY,DISPOSITION EVENT,FOLLOW-UP 2,16,ACTIVE,2002,," "
NIDA-CTN-0001,DS,01_034039,14,1,PARTICIPANT COMPLETED ACTIVE PHASE OF STUDY,Y,PARTICIPANT COMPLETED ACTIVE PHASE OF STUDY,DISPOSITION EVENT,STUDY DAY 14,14,ACTIVE,2001,2001,14
NIDA-CTN-0001,DS,01_034960,14,1,PARTICIPANT COMPLETED ACTIVE PHASE OF STUDY,Y,PARTICIPANT COMPLETED ACTIVE PHASE OF STUDY,DISPOSITION EVENT,STUDY DAY 14,14,ACTIVE,2001,2001,14
NIDA-CTN-0001,DS,01_034960,380,2,PARTICIPANT COMPLETED ACTIVE PHASE OF STUDY,Y,PARTICIPANT COMPLETED ACTIVE PHASE OF STUDY,DISPOSITION EVENT,FOLLOW-UP 1,15,ACTIVE,2002,2002,30
NIDA-CTN-0001,DS,01_034960,380,3,PARTICIPANT NO LONGER ATTENDS CLINIC,Y,PARTICIPANT NO LONGER ATTENDS CLINIC,DISPOSITION EVENT,FOLLOW-UP 1,15,ACTIVE,2002,2002,30
NIDA-CTN-0001,DS,01_035136,14,1,PARTICIPANT CAN NO LONGER ATTEND CLINIC,Y,PARTICIPANT CAN NO LONGER ATTEND CLINIC,DISPOSITION EVENT,STUDY DAY 14,14,ACTIVE,2001,2001,9
NIDA-CTN-0001,DS,01_035136,107,2,PARTICIPANT COMPLETED ACTIVE PHASE OF STUDY,Y,PARTICIPANT COMPLETED ACTIVE PHASE OF STUDY,DISPOSITION EVENT,FOLLOW-UP 2,16,ACTIVE,2001,2001,107
NIDA-CTN-0001,DS,01_035136,107,3,PARTICIPANT NO LONGER ATTENDS CLINIC,Y,PARTICIPANT NO LONGER ATTENDS CLINIC,DISPOSITION EVENT,FOLLOW-UP 2,16,ACTIVE,2001,2001,107
NIDA-CTN-0001,DS,01_036285,33,5,DISCHARGED FOR OTHER (SPECIFY),Y,DISCHARGED FOR OTHER (SPECIFY),DISPOSITION EVENT,FOLLOW-UP 1,15,ACTIVE,2002,2002,14
NIDA-CTN-0001,DS,01_036285,121,8,DISCHARGED FOR OTHER (SPECIFY),Y,DISCHARGED FOR OTHER (SPECIFY),DISPOSITION EVENT,FOLLOW-UP 2,16,ACTIVE,2002,2002,14
NIDA-CTN-0001,DS,01_036285,211,11,DISCHARGED FOR OTHER (SPECIFY),Y,DISCHARGED FOR OTHER (SPECIFY),DISPOSITION EVENT,FOLLOW-UP 3,17,ACTIVE,2002,2002,14
NIDA-CTN-0001,DS,01_036285,14,3,INPATIENT DETOX OR TREATMENT,Y,INPATIENT DETOX OR TREATMENT,DISPOSITION EVENT,STUDY DAY 14,14,ACTIVE,2002,2002,14
NIDA-CTN-0001,DS,01_036285,14,1,PARTICIPANT COMPLETED ACTIVE PHASE OF STUDY,Y,PARTICIPANT COMPLETED ACTIVE PHASE OF STUDY,DISPOSITION EVENT,STUDY DAY 14,14,ACTIVE,2002,2002,14
NIDA-CTN-0001,DS,01_036285,33,4,PARTICIPANT COMPLETED ACTIVE PHASE OF STUDY,Y,PARTICIPANT COMPLETED ACTIVE PHASE OF STUDY,DISPOSITION EVENT,FOLLOW-UP 1,15,ACTIVE,2002,2002,14
NIDA-CTN-0001,DS,01_036285,121,6,PARTICIPANT COMPLETED ACTIVE PHASE OF STUDY,Y,PARTICIPANT COMPLETED ACTIVE PHASE OF STUDY,DISPOSITION EVENT,FOLLOW-UP 2,16,ACTIVE,2002,2002,14
NIDA-CTN-0001,DS,01_036285,211,9,PARTICIPANT COMPLETED ACTIVE PHASE OF STUDY,Y,PARTICIPANT COMPLETED ACTIVE PHASE OF STUDY,DISPOSITION EVENT,FOLLOW-UP 3,17,ACTIVE,2002,2002,14
NIDA-CTN-0001,DS,01_036285,14,2,VOLUNTARY TRANSFERRED TO ANOTHER TREATMENT PROGRAM (INDICATE TYPE),Y,VOLUNTARY TRANSFERRED TO ANOTHER TREATMENT PROGRAM (INDICATE TYPE),DISPOSITION EVENT,STUDY DAY 14,14,ACTIVE,2002,2002,14
NIDA-CTN-0001,DS,01_036285,121,7,VOLUNTARY TRANSFERRED TO ANOTHER TREATMENT PROGRAM (INDICATE TYPE),Y,VOLUNTARY TRANSFERRED TO ANOTHER TREATMENT PROGRAM (INDICATE TYPE),DISPOSITION EVENT,FOLLOW-UP 2,16,ACTIVE,2002,2002,14
NIDA-CTN-0001,DS,01_036285,211,10,VOLUNTARY TRANSFERRED TO ANOTHER TREATMENT PROGRAM (INDICATE TYPE),Y,VOLUNTARY TRANSFERRED TO ANOTHER TREATMENT PROGRAM (INDICATE TYPE),DISPOSITION EVENT,FOLLOW-UP 3,17,ACTIVE,2002,2002,14
NIDA-CTN-0001,DS,01_037378,14,1,PARTICIPANT COMPLETED ACTIVE PHASE OF STUDY,Y,PARTICIPANT COMPLETED ACTIVE PHASE OF STUDY,DISPOSITION EVENT,STUDY DAY 14,14,ACTIVE,2001,2001,14
NIDA-CTN-0001,DS,01_037378,31,2,PARTICIPANT COMPLETED ACTIVE PHASE OF STUDY,Y,PARTICIPANT COMPLETED ACTIVE PHASE OF STUDY,DISPOSITION EVENT,FOLLOW-UP 1,15,ACTIVE,2001,2001,14
NIDA-CTN-0001,DS,01_037378,94,3,PARTICIPANT COMPLETED ACTIVE PHASE OF STUDY,Y,PARTICIPANT COMPLETED ACTIVE PHASE OF STUDY,DISPOSITION EVENT,FOLLOW-UP 2,16,ACTIVE,2002,2001,14
NIDA-CTN-0001,DS,01_037378,209,4,PARTICIPANT COMPLETED ACTIVE PHASE OF STUDY,Y,PARTICIPANT COMPLETED ACTIVE PHASE OF STUDY,DISPOSITION EVENT,FOLLOW-UP 3,17,ACTIVE,2002,2001,14
NIDA-CTN-0001,DS,01_037769,14,1,PARTICIPANT COMPLETED ACTIVE PHASE OF STUDY,Y,PARTICIPANT COMPLETED ACTIVE PHASE OF STUDY,DISPOSITION EVENT,STUDY DAY 14,14,ACTIVE,2002,2002,14
NIDA-CTN-0001,DS,01_037769,60,2,PARTICIPANT COMPLETED ACTIVE PHASE OF STUDY,Y,PARTICIPANT COMPLETED ACTIVE PHASE OF STUDY,DISPOSITION EVENT,FOLLOW-UP 1,15,ACTIVE,2002,2002,14
NIDA-CTN-0001,DS,01_037769,121,4,PARTICIPANT COMPLETED ACTIVE PHASE OF STUDY,Y,PARTICIPANT COMPLETED ACTIVE PHASE OF STUDY,DISPOSITION EVENT,FOLLOW-UP 2,16,ACTIVE,2002,2002,14
NIDA-CTN-0001,DS,01_037769,211,6,PARTICIPANT COMPLETED ACTIVE PHASE OF STUDY,Y,PARTICIPANT COMPLETED ACTIVE PHASE OF STUDY,DISPOSITION EVENT,FOLLOW-UP 3,17,ACTIVE,2002,2002,14
NIDA-CTN-0001,DS,01_037769,60,3,PARTICIPANT NO LONGER ATTENDS CLINIC,Y,PARTICIPANT NO LONGER ATTENDS CLINIC,DISPOSITION EVENT,FOLLOW-UP 1,15,ACTIVE,2002,2002,14
NIDA-CTN-0001,DS,01_037769,121,5,PARTICIPANT NO LONGER ATTENDS CLINIC,Y,PARTICIPANT NO LONGER ATTENDS CLINIC,DISPOSITION EVENT,FOLLOW-UP 2,16,ACTIVE,2002,2002,14
NIDA-CTN-0001,DS,01_037769,211,7,PARTICIPANT NO LONGER ATTENDS CLINIC,Y,PARTICIPANT NO LONGER ATTENDS CLINIC,DISPOSITION EVENT,FOLLOW-UP 3,17,ACTIVE,2002,2002,14
NIDA-CTN-0001,DS,01_037973,14,1,PARTICIPANT COMPLETED ACTIVE PHASE OF STUDY,Y,PARTICIPANT COMPLETED ACTIVE PHASE OF STUDY,DISPOSITION EVENT,STUDY DAY 14,14,ACTIVE,2002,2002,14
NIDA-CTN-0001,DS,01_037973,319,2,PARTICIPANT COMPLETED ACTIVE PHASE OF STUDY,Y,PARTICIPANT COMPLETED ACTIVE PHASE OF STUDY,DISPOSITION EVENT,FOLLOW-UP 1,15,ACTIVE,2002,2002,94
NIDA-CTN-0001,DS,01_037973,319,3,PARTICIPANT NO LONGER ATTENDS CLINIC,Y,PARTICIPANT NO LONGER ATTENDS CLINIC,DISPOSITION EVENT,FOLLOW-UP 1,15,ACTIVE,2002,2002,94
NIDA-CTN-0001,DS,01_038386,92,7,DISCHARGED FOR OTHER (SPECIFY),Y,DISCHARGED FOR OTHER (SPECIFY),DISPOSITION EVENT,FOLLOW-UP 2,16,ACTIVE,2001,2001,14
NIDA-CTN-0001,DS,01_038386,183,10,DISCHARGED FOR OTHER (SPECIFY),Y,DISCHARGED FOR OTHER (SPECIFY),DISPOSITION EVENT,FOLLOW-UP 3,17,ACTIVE,2002,2001,14
NIDA-CTN-0001,DS,01_038386,32,4,INPATIENT DETOX OR TREATMENT,Y,INPATIENT DETOX OR TREATMENT,DISPOSITION EVENT,FOLLOW-UP 1,15,ACTIVE,2001,2001,14
NIDA-CTN-0001,DS,01_038386,14,1,PARTICIPANT COMPLETED ACTIVE PHASE OF STUDY,Y,PARTICIPANT COMPLETED ACTIVE PHASE OF STUDY,DISPOSITION EVENT,STUDY DAY 14,14,ACTIVE,2001,2001,15
NIDA-CTN-0001,DS,01_038386,32,2,PARTICIPANT COMPLETED ACTIVE PHASE OF STUDY,Y,PARTICIPANT COMPLETED ACTIVE PHASE OF STUDY,DISPOSITION EVENT,FOLLOW-UP 1,15,ACTIVE,2001,2001,14
NIDA-CTN-0001,DS,01_038386,92,5,PARTICIPANT COMPLETED ACTIVE PHASE OF STUDY,Y,PARTICIPANT COMPLETED ACTIVE PHASE OF STUDY,DISPOSITION EVENT,FOLLOW-UP 2,16,ACTIVE,2001,2001,14
NIDA-CTN-0001,DS,01_038386,183,8,PARTICIPANT COMPLETED ACTIVE PHASE OF STUDY,Y,PARTICIPANT COMPLETED ACTIVE PHASE OF STUDY,DISPOSITION EVENT,FOLLOW-UP 3,17,ACTIVE,2002,2001,14
NIDA-CTN-0001,DS,01_038386,32,3,VOLUNTARY TRANSFERRED TO ANOTHER TREATMENT PROGRAM (INDICATE TYPE),Y,VOLUNTARY TRANSFERRED TO ANOTHER TREATMENT PROGRAM (INDICATE TYPE),DISPOSITION EVENT,FOLLOW-UP 1,15,ACTIVE,2001,2001,14
NIDA-CTN-0001,DS,01_038386,92,6,VOLUNTARY TRANSFERRED TO ANOTHER TREATMENT PROGRAM (INDICATE TYPE),Y,VOLUNTARY TRANSFERRED TO ANOTHER TREATMENT PROGRAM (INDICATE TYPE),DISPOSITION EVENT,FOLLOW-UP 2,16,ACTIVE,2001,2001,14
NIDA-CTN-0001,DS,01_038386,183,9,VOLUNTARY TRANSFERRED TO ANOTHER TREATMENT PROGRAM (INDICATE TYPE),Y,VOLUNTARY TRANSFERRED TO ANOTHER TREATMENT PROGRAM (INDICATE TYPE),DISPOSITION EVENT,FOLLOW-UP 3,17,ACTIVE,2002,2001,14
NIDA-CTN-0001,DS,01_038392," ",5,DEATH,N,DEATH,DISPOSITION EVENT,"BASELINE, ANY DAY PRIOR TO FIRST DOSE",0,SCREENING,2002,," "
NIDA-CTN-0001,DS,01_038392," ",2,DECLINED STUDY PARTICIPATION,N,DECLINED STUDY PARTICIPATION,DISPOSITION EVENT,"BASELINE, ANY DAY PRIOR TO FIRST DOSE",0,SCREENING,2002,," "
NIDA-CTN-0001,DS,01_038392," ",6,FAILED TO MEET INCLUSION CRITERIA OR MET EXCLUSION CRITERIA AS NOTED ABOVE,Y,FAILED TO MEET INCLUSION CRITERIA OR MET EXCLUSION CRITERIA AS NOTED ABOVE,DISPOSITION EVENT,"BASELINE, ANY DAY PRIOR TO FIRST DOSE",0,SCREENING,2002,," "
NIDA-CTN-0001,DS,01_038392," ",1,FAILED TO RETURN TO CLINIC,N,FAILED TO RETURN TO CLINIC,DISPOSITION EVENT,"BASELINE, ANY DAY PRIOR TO FIRST DOSE",0,SCREENING,2002,," "
NIDA-CTN-0001,DS,01_038392," ",4,INCARCERATION (CURRENT OR PENDING),N,INCARCERATION (CURRENT OR PENDING),DISPOSITION EVENT,"BASELINE, ANY DAY PRIOR TO FIRST DOSE",0,SCREENING,2002,," "
NIDA-CTN-0001,DS,01_038392," ",3,MOVED FROM AREA (CURRENT OR PENDING),N,MOVED FROM AREA (CURRENT OR PENDING),DISPOSITION EVENT,"BASELINE, ANY DAY PRIOR TO FIRST DOSE",0,SCREENING,2002,," "
NIDA-CTN-0001,DS,01_038465,13,1,PARTICIPANT COMPLETED ACTIVE PHASE OF STUDY,Y,PARTICIPANT COMPLETED ACTIVE PHASE OF STUDY,DISPOSITION EVENT,STUDY DAY 13,13,ACTIVE,2002,2002,13
NIDA-CTN-0001,DS,01_038661,14,1,PARTICIPANT COMPLETED ACTIVE PHASE OF STUDY,Y,PARTICIPANT COMPLETED ACTIVE PHASE OF STUDY,DISPOSITION EVENT,STUDY DAY 14,14,ACTIVE,2002,2002,14
NIDA-CTN-0001,DS,01_038661,326,2,PARTICIPANT COMPLETED ACTIVE PHASE OF STUDY,Y,PARTICIPANT COMPLETED ACTIVE PHASE OF STUDY,DISPOSITION EVENT,FOLLOW-UP 1,15,ACTIVE,2002,2002,183
NIDA-CTN-0001,DS,01_038661,326,3,PARTICIPANT NO LONGER ATTENDS CLINIC,Y,PARTICIPANT NO LONGER ATTENDS CLINIC,DISPOSITION EVENT,FOLLOW-UP 1,15,ACTIVE,2002,2002,183
NIDA-CTN-0001,DS,01_038734," ",1,FAILED TO MEET INCLUSION CRITERIA OR MET EXCLUSION CRITERIA AS NOTED ABOVE,Y,FAILED TO MEET INCLUSION CRITERIA OR MET EXCLUSION CRITERIA AS NOTED ABOVE,DISPOSITION EVENT,"BASELINE, ANY DAY PRIOR TO FIRST DOSE",0,SCREENING,2001,," "
NIDA-CTN-0001,DS,01_041193,14,2,PARTICIPANT CAN NO LONGER ATTEND CLINIC,Y,PARTICIPANT CAN NO LONGER ATTEND CLINIC,DISPOSITION EVENT,STUDY DAY 14,14,ACTIVE,2001,2001,8
NIDA-CTN-0001,DS,01_041193,14,1,PARTICIPANT HAS MOVED FROM THE AREA,Y,PARTICIPANT HAS MOVED FROM THE AREA,DISPOSITION EVENT,STUDY DAY 14,14,ACTIVE,2001,2001,8
NIDA-CTN-0001,DS,01_041193,209,3,PARTICIPANT NO LONGER ATTENDS CLINIC,Y,PARTICIPANT NO LONGER ATTENDS CLINIC,DISPOSITION EVENT,FOLLOW-UP 3,17,ACTIVE,2002,2001,38
NIDA-CTN-0001,DS,01_043642,14,1,PARTICIPANT NO LONGER ATTENDS CLINIC,Y,PARTICIPANT NO LONGER ATTENDS CLINIC,DISPOSITION EVENT,STUDY DAY 14,14,ACTIVE,2002,2002,7
NIDA-CTN-0001,DS,01_044124,14,1,PARTICIPANT COMPLETED ACTIVE PHASE OF STUDY,Y,PARTICIPANT COMPLETED ACTIVE PHASE OF STUDY,DISPOSITION EVENT,STUDY DAY 14,14,ACTIVE,2001,2001,14
NIDA-CTN-0001,DS,01_044124,101,2,PARTICIPANT COMPLETED ACTIVE PHASE OF STUDY,Y,PARTICIPANT COMPLETED ACTIVE PHASE OF STUDY,DISPOSITION EVENT,FOLLOW-UP 2,16,ACTIVE,2001,2001,101
NIDA-CTN-0001,DS,01_044124,101,3,PARTICIPANT NO LONGER ATTENDS CLINIC,Y,PARTICIPANT NO LONGER ATTENDS CLINIC,DISPOSITION EVENT,FOLLOW-UP 2,16,ACTIVE,2001,2001,101
NIDA-CTN-0001,DS,01_044573,15,1,PARTICIPANT COMPLETED ACTIVE PHASE OF STUDY,Y,PARTICIPANT COMPLETED ACTIVE PHASE OF STUDY,DISPOSITION EVENT,STUDY DAY 14,14,ACTIVE,2001,2001,15
NIDA-CTN-0001,DS,01_045322,14,1,PARTICIPANT COMPLETED ACTIVE PHASE OF STUDY,Y,PARTICIPANT COMPLETED ACTIVE PHASE OF STUDY,DISPOSITION EVENT,STUDY DAY 14,14,ACTIVE,2001,2001,14
NIDA-CTN-0001,DS,01_045322,422,2,PARTICIPANT COMPLETED ACTIVE PHASE OF STUDY,Y,PARTICIPANT COMPLETED ACTIVE PHASE OF STUDY,DISPOSITION EVENT,FOLLOW-UP 1,15,ACTIVE,2002,2002,90
NIDA-CTN-0001,DS,01_045322,422,3,PARTICIPANT NO LONGER ATTENDS CLINIC,Y,PARTICIPANT NO LONGER ATTENDS CLINIC,DISPOSITION EVENT,FOLLOW-UP 1,15,ACTIVE,2002,2002,90
NIDA-CTN-0001,DS,01_045453," ",1,FAILED TO MEET INCLUSION CRITERIA OR MET EXCLUSION CRITERIA AS NOTED ABOVE,Y,FAILED TO MEET INCLUSION CRITERIA OR MET EXCLUSION CRITERIA AS NOTED ABOVE,DISPOSITION EVENT,"BASELINE, ANY DAY PRIOR TO FIRST DOSE",0,SCREENING,2002,," "
NIDA-CTN-0001,DS,01_045827," ",1,FAILED TO MEET INCLUSION CRITERIA OR MET EXCLUSION CRITERIA AS NOTED ABOVE,Y,FAILED TO MEET INCLUSION CRITERIA OR MET EXCLUSION CRITERIA AS NOTED ABOVE,DISPOSITION EVENT,"BASELINE, ANY DAY PRIOR TO FIRST DOSE",0,SCREENING,2001,," "
NIDA-CTN-0001,DS,01_046242,14,1,PARTICIPANT COMPLETED ACTIVE PHASE OF STUDY,Y,PARTICIPANT COMPLETED ACTIVE PHASE OF STUDY,DISPOSITION EVENT,STUDY DAY 14,14,ACTIVE,2002,2002,14
NIDA-CTN-0001,DS,01_046242,342,2,PARTICIPANT COMPLETED ACTIVE PHASE OF STUDY,Y,PARTICIPANT COMPLETED ACTIVE PHASE OF STUDY,DISPOSITION EVENT,FOLLOW-UP 1,15,ACTIVE,2002,2002,201
NIDA-CTN-0001,DS,01_046242,342,3,PARTICIPANT NO LONGER ATTENDS CLINIC,Y,PARTICIPANT NO LONGER ATTENDS CLINIC,DISPOSITION EVENT,FOLLOW-UP 1,15,ACTIVE,2002,2002,201
NIDA-CTN-0001,DS,01_046618,28,4,DISCHARGED FOR OTHER (SPECIFY),Y,DISCHARGED FOR OTHER (SPECIFY),DISPOSITION EVENT,FOLLOW-UP 1,15,ACTIVE,2001,2001,14
NIDA-CTN-0001,DS,01_046618,14,1,PARTICIPANT COMPLETED ACTIVE PHASE OF STUDY,Y,PARTICIPANT COMPLETED ACTIVE PHASE OF STUDY,DISPOSITION EVENT,STUDY DAY 14,14,ACTIVE,2001,2001,14
NIDA-CTN-0001,DS,01_046618,28,2,PARTICIPANT COMPLETED ACTIVE PHASE OF STUDY,Y,PARTICIPANT COMPLETED ACTIVE PHASE OF STUDY,DISPOSITION EVENT,FOLLOW-UP 1,15,ACTIVE,2001,2001,14
NIDA-CTN-0001,DS,01_046618,96,5,PARTICIPANT COMPLETED ACTIVE PHASE OF STUDY,Y,PARTICIPANT COMPLETED ACTIVE PHASE OF STUDY,DISPOSITION EVENT,FOLLOW-UP 2,16,ACTIVE,2001,2001,14
NIDA-CTN-0001,DS,01_046618,181,6,PARTICIPANT COMPLETED ACTIVE PHASE OF STUDY,Y,PARTICIPANT COMPLETED ACTIVE PHASE OF STUDY,DISPOSITION EVENT,FOLLOW-UP 3,17,ACTIVE,2002,2001,14
NIDA-CTN-0001,DS,01_046618,28,3,VOLUNTARY TRANSFERRED TO ANOTHER TREATMENT PROGRAM (INDICATE TYPE),Y,VOLUNTARY TRANSFERRED TO ANOTHER TREATMENT PROGRAM (INDICATE TYPE),DISPOSITION EVENT,FOLLOW-UP 1,15,ACTIVE,2001,2001,14
NIDA-CTN-0001,DS,01_046633,211,2,PARTICIPANT NO LONGER ATTENDS CLINIC,Y,PARTICIPANT NO LONGER ATTENDS CLINIC,DISPOSITION EVENT,FOLLOW-UP 3,17,ACTIVE,2002,2001,1
NIDA-CTN-0001,DS,01_046633,1,1,PARTICIPANT WITHDREW FROM STUDY,Y,PARTICIPANT WITHDREW FROM STUDY,DISPOSITION EVENT,STUDY DAY 1,1,ACTIVE,2001,2001,1
NIDA-CTN-0001,DS,01_047430,14,1,PARTICIPANT COMPLETED ACTIVE PHASE OF STUDY,Y,PARTICIPANT COMPLETED ACTIVE PHASE OF STUDY,DISPOSITION EVENT,STUDY DAY 14,14,ACTIVE,2001,2001,14
NIDA-CTN-0001,DS,01_047430,210,3,PARTICIPANT COMPLETED ACTIVE PHASE OF STUDY,Y,PARTICIPANT COMPLETED ACTIVE PHASE OF STUDY,DISPOSITION EVENT,FOLLOW-UP 3,17,ACTIVE,2002,2001,14
NIDA-CTN-0001,DS,01_047430,14,2,PARTICIPANT NO LONGER ATTENDS CLINIC,Y,PARTICIPANT NO LONGER ATTENDS CLINIC,DISPOSITION EVENT,STUDY DAY 14,14,ACTIVE,2001,2001,14
NIDA-CTN-0001,DS,01_047430,210,4,PARTICIPANT NO LONGER ATTENDS CLINIC,Y,PARTICIPANT NO LONGER ATTENDS CLINIC,DISPOSITION EVENT,FOLLOW-UP 3,17,ACTIVE,2002,2001,14
NIDA-CTN-0001,DS,01_047434,3,1,PARTICIPANT NO LONGER ATTENDS CLINIC,Y,PARTICIPANT NO LONGER ATTENDS CLINIC,DISPOSITION EVENT,STUDY DAY 3,3,ACTIVE,2001,2001,3
NIDA-CTN-0001,DS,01_047434,60,2,PARTICIPANT WITHDREW FROM STUDY,Y,PARTICIPANT WITHDREW FROM STUDY,DISPOSITION EVENT,FOLLOW-UP 1,15,ACTIVE,2001,2001,3
NIDA-CTN-0001,DS,01_047434,120,3,PARTICIPANT WITHDREW FROM STUDY,Y,PARTICIPANT WITHDREW FROM STUDY,DISPOSITION EVENT,FOLLOW-UP 2,16,ACTIVE,2001,2001,3
NIDA-CTN-0001,DS,01_047434,211,4,PARTICIPANT WITHDREW FROM STUDY,Y,PARTICIPANT WITHDREW FROM STUDY,DISPOSITION EVENT,FOLLOW-UP 3,17,ACTIVE,2002,2001,3
NIDA-CTN-0001,DS,01_047446,14,1,PARTICIPANT COMPLETED ACTIVE PHASE OF STUDY,Y,PARTICIPANT COMPLETED ACTIVE PHASE OF STUDY,DISPOSITION EVENT,STUDY DAY 14,14,ACTIVE,2001,2001,14
NIDA-CTN-0001,DS,01_048738,14,1,PARTICIPANT COMPLETED ACTIVE PHASE OF STUDY,Y,PARTICIPANT COMPLETED ACTIVE PHASE OF STUDY,DISPOSITION EVENT,STUDY DAY 14,14,ACTIVE,2001,2001,14
NIDA-CTN-0001,DS,01_049581,13,1,PARTICIPANT COMPLETED ACTIVE PHASE OF STUDY,Y,PARTICIPANT COMPLETED ACTIVE PHASE OF STUDY,DISPOSITION EVENT,STUDY DAY 13,13,ACTIVE,2001,2001,13
NIDA-CTN-0001,DS,01_049581,180,3,PARTICIPANT COMPLETED ACTIVE PHASE OF STUDY,Y,PARTICIPANT COMPLETED ACTIVE PHASE OF STUDY,DISPOSITION EVENT,FOLLOW-UP 3,17,ACTIVE,2002,2002,180
NIDA-CTN-0001,DS,01_049581,13,2,PARTICIPANT IS IN A CONTROLLED ENVIRONMENT,Y,PARTICIPANT IS IN A CONTROLLED ENVIRONMENT,DISPOSITION EVENT,STUDY DAY 13,13,ACTIVE,2001,2001,13
NIDA-CTN-0001,DS,01_049581,180,4,PARTICIPANT NO LONGER ATTENDS CLINIC,Y,PARTICIPANT NO LONGER ATTENDS CLINIC,DISPOSITION EVENT,FOLLOW-UP 3,17,ACTIVE,2002,2002,180
NIDA-CTN-0001,DS,01_049798,14,1,PARTICIPANT COMPLETED ACTIVE PHASE OF STUDY,Y,PARTICIPANT COMPLETED ACTIVE PHASE OF STUDY,DISPOSITION EVENT,STUDY DAY 14,14,ACTIVE,2002,2002,14
NIDA-CTN-0001,DS,01_050019,14,1,PARTICIPANT COMPLETED ACTIVE PHASE OF STUDY,Y,PARTICIPANT COMPLETED ACTIVE PHASE OF STUDY,DISPOSITION EVENT,STUDY DAY 14,14,ACTIVE,2002,2002,14
NIDA-CTN-0001,DS,01_050242," ",1,FAILED TO MEET INCLUSION CRITERIA OR MET EXCLUSION CRITERIA AS NOTED ABOVE,Y,FAILED TO MEET INCLUSION CRITERIA OR MET EXCLUSION CRITERIA AS NOTED ABOVE,DISPOSITION EVENT,"BASELINE, ANY DAY PRIOR TO FIRST DOSE",0,SCREENING,2002,," "
NIDA-CTN-0001,DS,01_050792,117,2,PARTICIPANT COMPLETED ACTIVE PHASE OF STUDY,Y,PARTICIPANT COMPLETED ACTIVE PHASE OF STUDY,DISPOSITION EVENT,FOLLOW-UP 2,16,ACTIVE,2002,2002,117
NIDA-CTN-0001,DS,01_050792,14,1,PARTICIPANT NO LONGER ATTENDS CLINIC,Y,PARTICIPANT NO LONGER ATTENDS CLINIC,DISPOSITION EVENT,STUDY DAY 14,14,ACTIVE,2001,2001,3
NIDA-CTN-0001,DS,01_050792,117,3,PARTICIPANT NO LONGER ATTENDS CLINIC,Y,PARTICIPANT NO LONGER ATTENDS CLINIC,DISPOSITION EVENT,FOLLOW-UP 2,16,ACTIVE,2002,2002,117
NIDA-CTN-0001,DS,01_052001," ",1,FAILED TO MEET INCLUSION CRITERIA OR MET EXCLUSION CRITERIA AS NOTED ABOVE,Y,FAILED TO MEET INCLUSION CRITERIA OR MET EXCLUSION CRITERIA AS NOTED ABOVE,DISPOSITION EVENT,"BASELINE, ANY DAY PRIOR TO FIRST DOSE",0,SCREENING,2001,," "
NIDA-CTN-0001,DS,01_053466,14,1,PARTICIPANT WITHDREW FROM STUDY,Y,PARTICIPANT WITHDREW FROM STUDY,DISPOSITION EVENT,STUDY DAY 14,14,ACTIVE,2001,2001,9
NIDA-CTN-0001,DS,01_055880,14,1,PARTICIPANT CAN NO LONGER ATTEND CLINIC,Y,PARTICIPANT CAN NO LONGER ATTEND CLINIC,DISPOSITION EVENT,STUDY DAY 14,14,ACTIVE,2001,2001,9
NIDA-CTN-0001,DS,01_055899,14,1,PARTICIPANT COMPLETED ACTIVE PHASE OF STUDY,Y,PARTICIPANT COMPLETED ACTIVE PHASE OF STUDY,DISPOSITION EVENT,STUDY DAY 14,14,ACTIVE,2002,2002,13
NIDA-CTN-0001,DS,01_055899,338,2,PARTICIPANT COMPLETED ACTIVE PHASE OF STUDY,Y,PARTICIPANT COMPLETED ACTIVE PHASE OF STUDY,DISPOSITION EVENT,FOLLOW-UP 1,15,ACTIVE,2002,2002,209
NIDA-CTN-0001,DS,01_055899,338,3,PARTICIPANT NO LONGER ATTENDS CLINIC,Y,PARTICIPANT NO LONGER ATTENDS CLINIC,DISPOSITION EVENT,FOLLOW-UP 1,15,ACTIVE,2002,2002,209
NIDA-CTN-0001,DS,01_056993,14,1,PARTICIPANT COMPLETED ACTIVE PHASE OF STUDY,Y,PARTICIPANT COMPLETED ACTIVE PHASE OF STUDY,DISPOSITION EVENT,STUDY DAY 14,14,ACTIVE,2001,2001,14
NIDA-CTN-0001,DS,01_057109,13,1,PARTICIPANT COMPLETED ACTIVE PHASE OF STUDY,Y,PARTICIPANT COMPLETED ACTIVE PHASE OF STUDY,DISPOSITION EVENT,STUDY DAY 13,13,ACTIVE,2001,2001,13
NIDA-CTN-0001,DS,01_058191,4,1,PARTICIPANT WITHDREW FROM STUDY,Y,PARTICIPANT WITHDREW FROM STUDY,DISPOSITION EVENT,STUDY DAY 14,14,ACTIVE,2001,2001,4
NIDA-CTN-0001,DS,01_058918,1,1,VOLUNTARY TRANSFERRED TO ANOTHER TREATMENT PROGRAM (INDICATE TYPE),Y,VOLUNTARY TRANSFERRED TO ANOTHER TREATMENT PROGRAM (INDICATE TYPE),DISPOSITION EVENT,STUDY DAY 1,1,ACTIVE,2002,2002,1
NIDA-CTN-0001,DS,01_058918,1,2,VOLUNTARY TRANSFERRED TO ANOTHER TREATMENT PROGRAM-METHADONE,Y,VOLUNTARY TRANSFERRED TO ANOTHER TREATMENT PROGRAM-METHADONE,DISPOSITION EVENT,STUDY DAY 1,1,ACTIVE,2002,2002,1
NIDA-CTN-0001,DS,01_058930," ",1,FAILED TO MEET INCLUSION CRITERIA OR MET EXCLUSION CRITERIA AS NOTED ABOVE,Y,FAILED TO MEET INCLUSION CRITERIA OR MET EXCLUSION CRITERIA AS NOTED ABOVE,DISPOSITION EVENT,"BASELINE, ANY DAY PRIOR TO FIRST DOSE",0,SCREENING,2002,," "
NIDA-CTN-0001,DS,01_059208,14,1,PARTICIPANT COMPLETED ACTIVE PHASE OF STUDY,Y,PARTICIPANT COMPLETED ACTIVE PHASE OF STUDY,DISPOSITION EVENT,STUDY DAY 14,14,ACTIVE,2002,2002,14
NIDA-CTN-0001,DS,01_059208,360,2,PARTICIPANT COMPLETED ACTIVE PHASE OF STUDY,Y,PARTICIPANT COMPLETED ACTIVE PHASE OF STUDY,DISPOSITION EVENT,FOLLOW-UP 1,15,ACTIVE,2002,2002,185
NIDA-CTN-0001,DS,01_059208,360,3,PARTICIPANT NO LONGER ATTENDS CLINIC,Y,PARTICIPANT NO LONGER ATTENDS CLINIC,DISPOSITION EVENT,FOLLOW-UP 1,15,ACTIVE,2002,2002,185
NIDA-CTN-0001,DS,01_063935,2,1,PARTICIPANT WITHDREW FROM STUDY,Y,PARTICIPANT WITHDREW FROM STUDY,DISPOSITION EVENT,STUDY DAY 2,2,ACTIVE,2001,2001,1
NIDA-CTN-0001,DS,01_063935,44,2,PARTICIPANT WITHDREW FROM STUDY,Y,PARTICIPANT WITHDREW FROM STUDY,DISPOSITION EVENT,FOLLOW-UP 1,15,ACTIVE,2002,2001,1
NIDA-CTN-0001,DS,01_063935,91,3,PARTICIPANT WITHDREW FROM STUDY,Y,PARTICIPANT WITHDREW FROM STUDY,DISPOSITION EVENT,FOLLOW-UP 2,16,ACTIVE,2002,2001,1
NIDA-CTN-0001,DS,01_063935,185,4,PARTICIPANT WITHDREW FROM STUDY,Y,PARTICIPANT WITHDREW FROM STUDY,DISPOSITION EVENT,FOLLOW-UP 3,17,ACTIVE,2002,2001,1
NIDA-CTN-0001,DS,01_065383,1,1,PARTICIPANT WITHDREW FROM STUDY,Y,PARTICIPANT WITHDREW FROM STUDY,DISPOSITION EVENT,STUDY DAY 1,1,ACTIVE,2001,2001,13
NIDA-CTN-0001,DS,01_065383,60,2,PARTICIPANT WITHDREW FROM STUDY,Y,PARTICIPANT WITHDREW FROM STUDY,DISPOSITION EVENT,FOLLOW-UP 1,15,ACTIVE,2001,2001,13
NIDA-CTN-0001,DS,01_065383,120,3,PARTICIPANT WITHDREW FROM STUDY,Y,PARTICIPANT WITHDREW FROM STUDY,DISPOSITION EVENT,FOLLOW-UP 2,16,ACTIVE,2001,2001,13
NIDA-CTN-0001,DS,01_065383,193,4,PARTICIPANT WITHDREW FROM STUDY,Y,PARTICIPANT WITHDREW FROM STUDY,DISPOSITION EVENT,FOLLOW-UP 3,17,ACTIVE,2002,2001,13
NIDA-CTN-0001,DS,01_065383,193,5,VOLUNTARY TRANSFERRED TO ANOTHER TREATMENT PROGRAM-THERAPEUTIC COMMUNITY,Y,VOLUNTARY TRANSFERRED TO ANOTHER TREATMENT PROGRAM-THERAPEUTIC COMMUNITY,DISPOSITION EVENT,FOLLOW-UP 3,17,ACTIVE,2002,2001,13
NIDA-CTN-0001,DS,01_065758,14,1,PARTICIPANT COMPLETED ACTIVE PHASE OF STUDY,Y,PARTICIPANT COMPLETED ACTIVE PHASE OF STUDY,DISPOSITION EVENT,STUDY DAY 14,14,ACTIVE,2001,2001,14
NIDA-CTN-0001,DS,01_066150,14,1,PARTICIPANT NO LONGER ATTENDS CLINIC,Y,PARTICIPANT NO LONGER ATTENDS CLINIC,DISPOSITION EVENT,STUDY DAY 14,14,ACTIVE,2002,2002,6
NIDA-CTN-0001,DS,01_067193,2,1,VOLUNTARY TRANSFERRED TO ANOTHER TREATMENT PROGRAM (INDICATE TYPE),Y,VOLUNTARY TRANSFERRED TO ANOTHER TREATMENT PROGRAM (INDICATE TYPE),DISPOSITION EVENT,STUDY DAY 2,2,ACTIVE,2001,2001,2
NIDA-CTN-0001,DS,01_067193,2,2,VOLUNTARY TRANSFERRED TO ANOTHER TREATMENT PROGRAM-METHADONE,Y,VOLUNTARY TRANSFERRED TO ANOTHER TREATMENT PROGRAM-METHADONE,DISPOSITION EVENT,STUDY DAY 2,2,ACTIVE,2001,2001,2
NIDA-CTN-0001,DS,01_067888,3,1,PARTICIPANT HAS DEVELOPED SENSITIVITY OR ALLERGY TO BUPRENORPHINE/NALOXONE OR CLONIDINE,Y,PARTICIPANT HAS DEVELOPED SENSITIVITY OR ALLERGY TO BUPRENORPHINE/NALOXONE OR CLONIDINE,DISPOSITION EVENT,STUDY DAY 3,3,ACTIVE,2001,2001,3
NIDA-CTN-0001,DS,01_067888,38,3,PARTICIPANT NO LONGER ATTENDS CLINIC,Y,PARTICIPANT NO LONGER ATTENDS CLINIC,DISPOSITION EVENT,FOLLOW-UP 1,15,ACTIVE,2001,2001,38
NIDA-CTN-0001,DS,01_067888,38,2,PARTICIPANT WITHDREW FROM STUDY,Y,PARTICIPANT WITHDREW FROM STUDY,DISPOSITION EVENT,FOLLOW-UP 1,15,ACTIVE,2001,2001,38
NIDA-CTN-0001,DS,01_068101,14,1,PARTICIPANT COMPLETED ACTIVE PHASE OF STUDY,Y,PARTICIPANT COMPLETED ACTIVE PHASE OF STUDY,DISPOSITION EVENT,STUDY DAY 14,14,ACTIVE,2002,2002,14
NIDA-CTN-0001,DS,01_068916,14,1,PARTICIPANT COMPLETED ACTIVE PHASE OF STUDY,Y,PARTICIPANT COMPLETED ACTIVE PHASE OF STUDY,DISPOSITION EVENT,STUDY DAY 14,14,ACTIVE,2002,2002,3
NIDA-CTN-0001,DS,01_068916,34,2,PARTICIPANT COMPLETED ACTIVE PHASE OF STUDY,Y,PARTICIPANT COMPLETED ACTIVE PHASE OF STUDY,DISPOSITION EVENT,FOLLOW-UP 1,15,ACTIVE,2002,2002,34
NIDA-CTN-0001,DS,01_068916,34,3,PARTICIPANT NO LONGER ATTENDS CLINIC,Y,PARTICIPANT NO LONGER ATTENDS CLINIC,DISPOSITION EVENT,FOLLOW-UP 1,15,ACTIVE,2002,2002,34
NIDA-CTN-0001,DS,01_071075,14,1,PARTICIPANT COMPLETED ACTIVE PHASE OF STUDY,Y,PARTICIPANT COMPLETED ACTIVE PHASE OF STUDY,DISPOSITION EVENT,STUDY DAY 14,14,ACTIVE,2001,2001,14
NIDA-CTN-0001,DS,01_073890,14,1,PARTICIPANT COMPLETED ACTIVE PHASE OF STUDY,Y,PARTICIPANT COMPLETED ACTIVE PHASE OF STUDY,DISPOSITION EVENT,STUDY DAY 14,14,ACTIVE,2001,2001,14
NIDA-CTN-0001,DS,01_073890,387,2,PARTICIPANT COMPLETED ACTIVE PHASE OF STUDY,Y,PARTICIPANT COMPLETED ACTIVE PHASE OF STUDY,DISPOSITION EVENT,FOLLOW-UP 1,15,ACTIVE,2002,2002,190
NIDA-CTN-0001,DS,01_073890,387,3,PARTICIPANT NO LONGER ATTENDS CLINIC,Y,PARTICIPANT NO LONGER ATTENDS CLINIC,DISPOSITION EVENT,FOLLOW-UP 1,15,ACTIVE,2002,2002,190
NIDA-CTN-0001,DS,01_074593," ",5,DEATH,N,DEATH,DISPOSITION EVENT,"BASELINE, ANY DAY PRIOR TO FIRST DOSE",0,SCREENING,2001,," "
NIDA-CTN-0001,DS,01_074593," ",2,DECLINED STUDY PARTICIPATION,N,DECLINED STUDY PARTICIPATION,DISPOSITION EVENT,"BASELINE, ANY DAY PRIOR TO FIRST DOSE",0,SCREENING,2001,," "
NIDA-CTN-0001,DS,01_074593," ",6,FAILED TO MEET INCLUSION CRITERIA OR MET EXCLUSION CRITERIA AS NOTED ABOVE,Y,FAILED TO MEET INCLUSION CRITERIA OR MET EXCLUSION CRITERIA AS NOTED ABOVE,DISPOSITION EVENT,"BASELINE, ANY DAY PRIOR TO FIRST DOSE",0,SCREENING,2001,," "
NIDA-CTN-0001,DS,01_074593," ",1,FAILED TO RETURN TO CLINIC,N,FAILED TO RETURN TO CLINIC,DISPOSITION EVENT,"BASELINE, ANY DAY PRIOR TO FIRST DOSE",0,SCREENING,2001,," "
NIDA-CTN-0001,DS,01_074593," ",4,INCARCERATION (CURRENT OR PENDING),N,INCARCERATION (CURRENT OR PENDING),DISPOSITION EVENT,"BASELINE, ANY DAY PRIOR TO FIRST DOSE",0,SCREENING,2001,," "
NIDA-CTN-0001,DS,01_074593," ",3,MOVED FROM AREA (CURRENT OR PENDING),N,MOVED FROM AREA (CURRENT OR PENDING),DISPOSITION EVENT,"BASELINE, ANY DAY PRIOR TO FIRST DOSE",0,SCREENING,2001,," "
NIDA-CTN-0001,DS,01_075298,30,4,DISCHARGED FOR OTHER (SPECIFY),Y,DISCHARGED FOR OTHER (SPECIFY),DISPOSITION EVENT,FOLLOW-UP 1,15,ACTIVE,2002,," "
NIDA-CTN-0001,DS,01_075298,105,7,DISCHARGED FOR OTHER (SPECIFY),Y,DISCHARGED FOR OTHER (SPECIFY),DISPOSITION EVENT,FOLLOW-UP 2,16,ACTIVE,2002,," "
NIDA-CTN-0001,DS,01_075298,182,10,DISCHARGED FOR OTHER (SPECIFY),Y,DISCHARGED FOR OTHER (SPECIFY),DISPOSITION EVENT,FOLLOW-UP 3,17,ACTIVE,2002,," "
NIDA-CTN-0001,DS,01_075298,14,1,PARTICIPANT COMPLETED ACTIVE PHASE OF STUDY,Y,PARTICIPANT COMPLETED ACTIVE PHASE OF STUDY,DISPOSITION EVENT,STUDY DAY 14,14,ACTIVE,2002,2002,14
NIDA-CTN-0001,DS,01_075298,30,2,PARTICIPANT COMPLETED ACTIVE PHASE OF STUDY,Y,PARTICIPANT COMPLETED ACTIVE PHASE OF STUDY,DISPOSITION EVENT,FOLLOW-UP 1,15,ACTIVE,2002,," "
NIDA-CTN-0001,DS,01_075298,105,5,PARTICIPANT COMPLETED ACTIVE PHASE OF STUDY,Y,PARTICIPANT COMPLETED ACTIVE PHASE OF STUDY,DISPOSITION EVENT,FOLLOW-UP 2,16,ACTIVE,2002,," "
NIDA-CTN-0001,DS,01_075298,182,8,PARTICIPANT COMPLETED ACTIVE PHASE OF STUDY,Y,PARTICIPANT COMPLETED ACTIVE PHASE OF STUDY,DISPOSITION EVENT,FOLLOW-UP 3,17,ACTIVE,2002,," "
NIDA-CTN-0001,DS,01_075298,30,3,VOLUNTARY TRANSFERRED TO ANOTHER TREATMENT PROGRAM (INDICATE TYPE),Y,VOLUNTARY TRANSFERRED TO ANOTHER TREATMENT PROGRAM (INDICATE TYPE),DISPOSITION EVENT,FOLLOW-UP 1,15,ACTIVE,2002,," "
NIDA-CTN-0001,DS,01_075298,105,6,VOLUNTARY TRANSFERRED TO ANOTHER TREATMENT PROGRAM (INDICATE TYPE),Y,VOLUNTARY TRANSFERRED TO ANOTHER TREATMENT PROGRAM (INDICATE TYPE),DISPOSITION EVENT,FOLLOW-UP 2,16,ACTIVE,2002,," "
NIDA-CTN-0001,DS,01_075298,182,9,VOLUNTARY TRANSFERRED TO ANOTHER TREATMENT PROGRAM (INDICATE TYPE),Y,VOLUNTARY TRANSFERRED TO ANOTHER TREATMENT PROGRAM (INDICATE TYPE),DISPOSITION EVENT,FOLLOW-UP 3,17,ACTIVE,2002,," "
NIDA-CTN-0001,DS,01_075337,14,1,PARTICIPANT COMPLETED ACTIVE PHASE OF STUDY,Y,PARTICIPANT COMPLETED ACTIVE PHASE OF STUDY,DISPOSITION EVENT,STUDY DAY 14,14,ACTIVE,2002,2002,14
NIDA-CTN-0001,DS,01_076020,14,1,PARTICIPANT COMPLETED ACTIVE PHASE OF STUDY,Y,PARTICIPANT COMPLETED ACTIVE PHASE OF STUDY,DISPOSITION EVENT,STUDY DAY 14,14,ACTIVE,2001,2001,14
NIDA-CTN-0001,DS,01_076556," ",1,DECLINED STUDY PARTICIPATION,Y,DECLINED STUDY PARTICIPATION,DISPOSITION EVENT,"BASELINE, ANY DAY PRIOR TO FIRST DOSE",0,SCREENING,2001,," "
NIDA-CTN-0001,DS,01_076607,14,1,PARTICIPANT COMPLETED ACTIVE PHASE OF STUDY,Y,PARTICIPANT COMPLETED ACTIVE PHASE OF STUDY,DISPOSITION EVENT,STUDY DAY 14,14,ACTIVE,2001,2001,14
NIDA-CTN-0001,DS,01_076607,408,2,PARTICIPANT COMPLETED ACTIVE PHASE OF STUDY,Y,PARTICIPANT COMPLETED ACTIVE PHASE OF STUDY,DISPOSITION EVENT,FOLLOW-UP 1,15,ACTIVE,2002,2002,191
NIDA-CTN-0001,DS,01_076607,408,3,PARTICIPANT NO LONGER ATTENDS CLINIC,Y,PARTICIPANT NO LONGER ATTENDS CLINIC,DISPOSITION EVENT,FOLLOW-UP 1,15,ACTIVE,2002,2002,191
NIDA-CTN-0001,DS,01_077269,8,1,ADMINISTRATIVELY WITHDRAWN,Y,ADMINISTRATIVELY WITHDRAWN,DISPOSITION EVENT,STUDY DAY 8,8,ACTIVE,2002,2002,8
NIDA-CTN-0001,DS,01_077269,8,2,HOSPITALIZED OR DEVELOPED ACUTE MEDICAL CONDITION WHICH WOULD MAKE FURTHER TREATMENT HAZARDOUS,Y,HOSPITALIZED OR DEVELOPED ACUTE MEDICAL CONDITION WHICH WOULD MAKE FURTHER TREATMENT HAZARDOUS,DISPOSITION EVENT,STUDY DAY 8,8,ACTIVE,2002,2002,8
NIDA-CTN-0001,DS,01_077269,8,4,INPATIENT DETOX OR TREATMENT,Y,INPATIENT DETOX OR TREATMENT,DISPOSITION EVENT,STUDY DAY 8,8,ACTIVE,2002,2002,8
NIDA-CTN-0001,DS,01_077269,340,5,PARTICIPANT COMPLETED ACTIVE PHASE OF STUDY,Y,PARTICIPANT COMPLETED ACTIVE PHASE OF STUDY,DISPOSITION EVENT,FOLLOW-UP 1,15,ACTIVE,2002,2002,30
NIDA-CTN-0001,DS,01_077269,340,6,PARTICIPANT NO LONGER ATTENDS CLINIC,Y,PARTICIPANT NO LONGER ATTENDS CLINIC,DISPOSITION EVENT,FOLLOW-UP 1,15,ACTIVE,2002,2002,30
NIDA-CTN-0001,DS,01_077269,8,3,VOLUNTARY TRANSFERRED TO ANOTHER TREATMENT PROGRAM (INDICATE TYPE),Y,VOLUNTARY TRANSFERRED TO ANOTHER TREATMENT PROGRAM (INDICATE TYPE),DISPOSITION EVENT,STUDY DAY 8,8,ACTIVE,2002,2002,8
NIDA-CTN-0001,DS,01_077274,3,1,INPATIENT DETOX OR TREATMENT,Y,INPATIENT DETOX OR TREATMENT,DISPOSITION EVENT,STUDY DAY 3,3,ACTIVE,2001,2001,3
NIDA-CTN-0001,DS,01_077274,178,2,PARTICIPANT COMPLETED ACTIVE PHASE OF STUDY,Y,PARTICIPANT COMPLETED ACTIVE PHASE OF STUDY,DISPOSITION EVENT,FOLLOW-UP 3,17,ACTIVE,2002,2002,178
NIDA-CTN-0001,DS,01_077274,178,3,PARTICIPANT NO LONGER ATTENDS CLINIC,Y,PARTICIPANT NO LONGER ATTENDS CLINIC,DISPOSITION EVENT,FOLLOW-UP 3,17,ACTIVE,2002,2002,178
NIDA-CTN-0001,DS,01_077768,18,1,PARTICIPANT COMPLETED ACTIVE PHASE OF STUDY,Y,PARTICIPANT COMPLETED ACTIVE PHASE OF STUDY,DISPOSITION EVENT,STUDY DAY 14,14,ACTIVE,2001,2001,14
NIDA-CTN-0001,DS,01_078258," ",1,FAILED TO MEET INCLUSION CRITERIA OR MET EXCLUSION CRITERIA AS NOTED ABOVE,Y,FAILED TO MEET INCLUSION CRITERIA OR MET EXCLUSION CRITERIA AS NOTED ABOVE,DISPOSITION EVENT,"BASELINE, ANY DAY PRIOR TO FIRST DOSE",0,SCREENING,2002,," "
NIDA-CTN-0001,DS,01_078367,14,1,PARTICIPANT COMPLETED ACTIVE PHASE OF STUDY,Y,PARTICIPANT COMPLETED ACTIVE PHASE OF STUDY,DISPOSITION EVENT,STUDY DAY 14,14,ACTIVE,2001,2001,14
NIDA-CTN-0001,DS,01_078685," ",5,DEATH,N,DEATH,DISPOSITION EVENT,"BASELINE, ANY DAY PRIOR TO FIRST DOSE",0,SCREENING,2001,," "
NIDA-CTN-0001,DS,01_078685," ",2,DECLINED STUDY PARTICIPATION,N,DECLINED STUDY PARTICIPATION,DISPOSITION EVENT,"BASELINE, ANY DAY PRIOR TO FIRST DOSE",0,SCREENING,2001,," "
NIDA-CTN-0001,DS,01_078685," ",6,FAILED TO MEET INCLUSION CRITERIA OR MET EXCLUSION CRITERIA AS NOTED ABOVE,Y,FAILED TO MEET INCLUSION CRITERIA OR MET EXCLUSION CRITERIA AS NOTED ABOVE,DISPOSITION EVENT,"BASELINE, ANY DAY PRIOR TO FIRST DOSE",0,SCREENING,2001,," "
NIDA-CTN-0001,DS,01_078685," ",1,FAILED TO RETURN TO CLINIC,N,FAILED TO RETURN TO CLINIC,DISPOSITION EVENT,"BASELINE, ANY DAY PRIOR TO FIRST DOSE",0,SCREENING,2001,," "
NIDA-CTN-0001,DS,01_078685," ",4,INCARCERATION (CURRENT OR PENDING),N,INCARCERATION (CURRENT OR PENDING),DISPOSITION EVENT,"BASELINE, ANY DAY PRIOR TO FIRST DOSE",0,SCREENING,2001,," "
NIDA-CTN-0001,DS,01_078685," ",3,MOVED FROM AREA (CURRENT OR PENDING),N,MOVED FROM AREA (CURRENT OR PENDING),DISPOSITION EVENT,"BASELINE, ANY DAY PRIOR TO FIRST DOSE",0,SCREENING,2001,," "
NIDA-CTN-0001,DS,01_079476," ",1,FAILED TO MEET INCLUSION CRITERIA OR MET EXCLUSION CRITERIA AS NOTED ABOVE,Y,FAILED TO MEET INCLUSION CRITERIA OR MET EXCLUSION CRITERIA AS NOTED ABOVE,DISPOSITION EVENT,"BASELINE, ANY DAY PRIOR TO FIRST DOSE",0,SCREENING,2001,," "
NIDA-CTN-0001,DS,01_081464,14,1,PARTICIPANT COMPLETED ACTIVE PHASE OF STUDY,Y,PARTICIPANT COMPLETED ACTIVE PHASE OF STUDY,DISPOSITION EVENT,STUDY DAY 14,14,ACTIVE,2001,2001,14
NIDA-CTN-0001,DS,01_081605,14,1,PARTICIPANT COMPLETED ACTIVE PHASE OF STUDY,Y,PARTICIPANT COMPLETED ACTIVE PHASE OF STUDY,DISPOSITION EVENT,STUDY DAY 14,14,ACTIVE,2001,2001,14
NIDA-CTN-0001,DS,01_082781,14,3,INPATIENT DETOX OR TREATMENT,Y,INPATIENT DETOX OR TREATMENT,DISPOSITION EVENT,STUDY DAY 14,14,ACTIVE,2002,2002,14
NIDA-CTN-0001,DS,01_082781,31,6,INPATIENT DETOX OR TREATMENT,Y,INPATIENT DETOX OR TREATMENT,DISPOSITION EVENT,FOLLOW-UP 1,15,ACTIVE,2002,2002,14
NIDA-CTN-0001,DS,01_082781,111,9,INPATIENT DETOX OR TREATMENT,Y,INPATIENT DETOX OR TREATMENT,DISPOSITION EVENT,FOLLOW-UP 2,16,ACTIVE,2002,2002,14
NIDA-CTN-0001,DS,01_082781,211,12,INPATIENT DETOX OR TREATMENT,Y,INPATIENT DETOX OR TREATMENT,DISPOSITION EVENT,FOLLOW-UP 3,17,ACTIVE,2002,2002,14
NIDA-CTN-0001,DS,01_082781,14,1,PARTICIPANT COMPLETED ACTIVE PHASE OF STUDY,Y,PARTICIPANT COMPLETED ACTIVE PHASE OF STUDY,DISPOSITION EVENT,STUDY DAY 14,14,ACTIVE,2002,2002,14
NIDA-CTN-0001,DS,01_082781,31,4,PARTICIPANT COMPLETED ACTIVE PHASE OF STUDY,Y,PARTICIPANT COMPLETED ACTIVE PHASE OF STUDY,DISPOSITION EVENT,FOLLOW-UP 1,15,ACTIVE,2002,2002,14
NIDA-CTN-0001,DS,01_082781,111,7,PARTICIPANT COMPLETED ACTIVE PHASE OF STUDY,Y,PARTICIPANT COMPLETED ACTIVE PHASE OF STUDY,DISPOSITION EVENT,FOLLOW-UP 2,16,ACTIVE,2002,2002,14
NIDA-CTN-0001,DS,01_082781,211,10,PARTICIPANT COMPLETED ACTIVE PHASE OF STUDY,Y,PARTICIPANT COMPLETED ACTIVE PHASE OF STUDY,DISPOSITION EVENT,FOLLOW-UP 3,17,ACTIVE,2002,2002,14
NIDA-CTN-0001,DS,01_082781,14,2,VOLUNTARY TRANSFERRED TO ANOTHER TREATMENT PROGRAM (INDICATE TYPE),Y,VOLUNTARY TRANSFERRED TO ANOTHER TREATMENT PROGRAM (INDICATE TYPE),DISPOSITION EVENT,STUDY DAY 14,14,ACTIVE,2002,2002,14
NIDA-CTN-0001,DS,01_082781,31,5,VOLUNTARY TRANSFERRED TO ANOTHER TREATMENT PROGRAM (INDICATE TYPE),Y,VOLUNTARY TRANSFERRED TO ANOTHER TREATMENT PROGRAM (INDICATE TYPE),DISPOSITION EVENT,FOLLOW-UP 1,15,ACTIVE,2002,2002,14
NIDA-CTN-0001,DS,01_082781,111,8,VOLUNTARY TRANSFERRED TO ANOTHER TREATMENT PROGRAM (INDICATE TYPE),Y,VOLUNTARY TRANSFERRED TO ANOTHER TREATMENT PROGRAM (INDICATE TYPE),DISPOSITION EVENT,FOLLOW-UP 2,16,ACTIVE,2002,2002,14
NIDA-CTN-0001,DS,01_082781,211,11,VOLUNTARY TRANSFERRED TO ANOTHER TREATMENT PROGRAM (INDICATE TYPE),Y,VOLUNTARY TRANSFERRED TO ANOTHER TREATMENT PROGRAM (INDICATE TYPE),DISPOSITION EVENT,FOLLOW-UP 3,17,ACTIVE,2002,2002,14
NIDA-CTN-0001,DS,01_085187,13,1,PARTICIPANT COMPLETED ACTIVE PHASE OF STUDY,Y,PARTICIPANT COMPLETED ACTIVE PHASE OF STUDY,DISPOSITION EVENT,STUDY DAY 13,13,ACTIVE,2001,2001,14
NIDA-CTN-0001,DS,01_085255,13,1,PARTICIPANT COMPLETED ACTIVE PHASE OF STUDY,Y,PARTICIPANT COMPLETED ACTIVE PHASE OF STUDY,DISPOSITION EVENT,STUDY DAY 13,13,ACTIVE,2001,2001,13
NIDA-CTN-0001,DS,01_085459,13,1,PARTICIPANT COMPLETED ACTIVE PHASE OF STUDY,Y,PARTICIPANT COMPLETED ACTIVE PHASE OF STUDY,DISPOSITION EVENT,STUDY DAY 13,13,ACTIVE,2001,2001,13
NIDA-CTN-0001,DS,01_085459,210,2,PARTICIPANT COMPLETED ACTIVE PHASE OF STUDY,Y,PARTICIPANT COMPLETED ACTIVE PHASE OF STUDY,DISPOSITION EVENT,FOLLOW-UP 3,17,ACTIVE,2002,2002,210
NIDA-CTN-0001,DS,01_085459,210,3,PARTICIPANT NO LONGER ATTENDS CLINIC,Y,PARTICIPANT NO LONGER ATTENDS CLINIC,DISPOSITION EVENT,FOLLOW-UP 3,17,ACTIVE,2002,2002,210
NIDA-CTN-0001,DS,01_086219,14,1,PARTICIPANT COMPLETED ACTIVE PHASE OF STUDY,Y,PARTICIPANT COMPLETED ACTIVE PHASE OF STUDY,DISPOSITION EVENT,STUDY DAY 14,14,ACTIVE,2001,2001,14
NIDA-CTN-0001,DS,01_086495,14,1,PARTICIPANT COMPLETED ACTIVE PHASE OF STUDY,Y,PARTICIPANT COMPLETED ACTIVE PHASE OF STUDY,DISPOSITION EVENT,STUDY DAY 14,14,ACTIVE,2001,2001,14
NIDA-CTN-0001,DS,01_086738,8,7,ADMINISTRATIVELY WITHDRAWN,Y,ADMINISTRATIVELY WITHDRAWN,DISPOSITION EVENT,STUDY DAY 14,14,ACTIVE,2002,2002,8
NIDA-CTN-0001,DS,01_086738,30,8,ADMINISTRATIVELY WITHDRAWN,Y,ADMINISTRATIVELY WITHDRAWN,DISPOSITION EVENT,FOLLOW-UP 1,15,ACTIVE,2002,," "
NIDA-CTN-0001,DS,01_086738,90,9,ADMINISTRATIVELY WITHDRAWN,Y,ADMINISTRATIVELY WITHDRAWN,DISPOSITION EVENT,FOLLOW-UP 2,16,ACTIVE,2002,," "
NIDA-CTN-0001,DS,01_086738,180,10,ADMINISTRATIVELY WITHDRAWN,Y,ADMINISTRATIVELY WITHDRAWN,DISPOSITION EVENT,FOLLOW-UP 3,17,ACTIVE,2002,," "
NIDA-CTN-0001,DS,01_086738,1,5,DEATH,N,DEATH,DISPOSITION EVENT,"BASELINE, ANY DAY PRIOR TO FIRST DOSE",0,SCREENING,2002,," "
NIDA-CTN-0001,DS,01_086738,1,2,DECLINED STUDY PARTICIPATION,N,DECLINED STUDY PARTICIPATION,DISPOSITION EVENT,"BASELINE, ANY DAY PRIOR TO FIRST DOSE",0,SCREENING,2002,," "
NIDA-CTN-0001,DS,01_086738,1,6,FAILED TO MEET INCLUSION CRITERIA OR MET EXCLUSION CRITERIA AS NOTED ABOVE,N,FAILED TO MEET INCLUSION CRITERIA OR MET EXCLUSION CRITERIA AS NOTED ABOVE,DISPOSITION EVENT,"BASELINE, ANY DAY PRIOR TO FIRST DOSE",0,SCREENING,2002,," "
NIDA-CTN-0001,DS,01_086738,1,1,FAILED TO RETURN TO CLINIC,N,FAILED TO RETURN TO CLINIC,DISPOSITION EVENT,"BASELINE, ANY DAY PRIOR TO FIRST DOSE",0,SCREENING,2002,," "
NIDA-CTN-0001,DS,01_086738,1,4,INCARCERATION (CURRENT OR PENDING),N,INCARCERATION (CURRENT OR PENDING),DISPOSITION EVENT,"BASELINE, ANY DAY PRIOR TO FIRST DOSE",0,SCREENING,2002,," "
NIDA-CTN-0001,DS,01_086738,1,3,MOVED FROM AREA (CURRENT OR PENDING),N,MOVED FROM AREA (CURRENT OR PENDING),DISPOSITION EVENT,"BASELINE, ANY DAY PRIOR TO FIRST DOSE",0,SCREENING,2002,," "
NIDA-CTN-0001,DS,01_087806,14,1,PARTICIPANT WITHDREW FROM STUDY,Y,PARTICIPANT WITHDREW FROM STUDY,DISPOSITION EVENT,STUDY DAY 14,14,ACTIVE,2001,2001,5
NIDA-CTN-0001,DS,01_089078,3,1,PARTICIPANT NO LONGER ATTENDS CLINIC,Y,PARTICIPANT NO LONGER ATTENDS CLINIC,DISPOSITION EVENT,STUDY DAY 3,3,ACTIVE,2001,2001,3
NIDA-CTN-0001,DS,01_089078,59,2,PARTICIPANT WITHDREW FROM STUDY,Y,PARTICIPANT WITHDREW FROM STUDY,DISPOSITION EVENT,FOLLOW-UP 1,15,ACTIVE,2001,2001,3
NIDA-CTN-0001,DS,01_089078,91,3,PARTICIPANT WITHDREW FROM STUDY,Y,PARTICIPANT WITHDREW FROM STUDY,DISPOSITION EVENT,FOLLOW-UP 2,16,ACTIVE,2001,2001,3
NIDA-CTN-0001,DS,01_089078,186,4,PARTICIPANT WITHDREW FROM STUDY,Y,PARTICIPANT WITHDREW FROM STUDY,DISPOSITION EVENT,FOLLOW-UP 3,17,ACTIVE,2002,2001,3
NIDA-CTN-0001,DS,01_089532,7,1,PARTICIPANT WITHDREW FROM STUDY,Y,PARTICIPANT WITHDREW FROM STUDY,DISPOSITION EVENT,STUDY DAY 14,14,ACTIVE,2001,2001,7
NIDA-CTN-0001,DS,01_089532,30,2,PARTICIPANT WITHDREW FROM STUDY,Y,PARTICIPANT WITHDREW FROM STUDY,DISPOSITION EVENT,FOLLOW-UP 1,15,ACTIVE,2002,," "
NIDA-CTN-0001,DS,01_089532,91,3,PARTICIPANT WITHDREW FROM STUDY,Y,PARTICIPANT WITHDREW FROM STUDY,DISPOSITION EVENT,FOLLOW-UP 2,16,ACTIVE,2002,," "
NIDA-CTN-0001,DS,01_089532,182,4,PARTICIPANT WITHDREW FROM STUDY,Y,PARTICIPANT WITHDREW FROM STUDY,DISPOSITION EVENT,FOLLOW-UP 3,17,ACTIVE,2002,," "
NIDA-CTN-0001,DS,01_089830,14,1,PARTICIPANT COMPLETED ACTIVE PHASE OF STUDY,Y,PARTICIPANT COMPLETED ACTIVE PHASE OF STUDY,DISPOSITION EVENT,STUDY DAY 14,14,ACTIVE,2001,2001,14
NIDA-CTN-0001,DS,01_090085,94,5,DISCHARGED FOR OTHER (SPECIFY),Y,DISCHARGED FOR OTHER (SPECIFY),DISPOSITION EVENT,FOLLOW-UP 2,16,ACTIVE,2001,2001,14
NIDA-CTN-0001,DS,01_090085,14,1,PARTICIPANT COMPLETED ACTIVE PHASE OF STUDY,Y,PARTICIPANT COMPLETED ACTIVE PHASE OF STUDY,DISPOSITION EVENT,STUDY DAY 14,14,ACTIVE,2001,2001,14
NIDA-CTN-0001,DS,01_090085,35,2,PARTICIPANT COMPLETED ACTIVE PHASE OF STUDY,Y,PARTICIPANT COMPLETED ACTIVE PHASE OF STUDY,DISPOSITION EVENT,FOLLOW-UP 1,15,ACTIVE,2001,2001,14
NIDA-CTN-0001,DS,01_090085,94,3,PARTICIPANT COMPLETED ACTIVE PHASE OF STUDY,Y,PARTICIPANT COMPLETED ACTIVE PHASE OF STUDY,DISPOSITION EVENT,FOLLOW-UP 2,16,ACTIVE,2001,2001,14
NIDA-CTN-0001,DS,01_090085,210,6,PARTICIPANT COMPLETED ACTIVE PHASE OF STUDY,Y,PARTICIPANT COMPLETED ACTIVE PHASE OF STUDY,DISPOSITION EVENT,FOLLOW-UP 3,17,ACTIVE,2002,2001,14
NIDA-CTN-0001,DS,01_090085,94,4,VOLUNTARY TRANSFERRED TO ANOTHER TREATMENT PROGRAM (INDICATE TYPE),Y,VOLUNTARY TRANSFERRED TO ANOTHER TREATMENT PROGRAM (INDICATE TYPE),DISPOSITION EVENT,FOLLOW-UP 2,16,ACTIVE,2001,2001,14
NIDA-CTN-0001,DS,01_090131,14,2,DISCHARGED FOR OTHER (SPECIFY),Y,DISCHARGED FOR OTHER (SPECIFY),DISPOSITION EVENT,STUDY DAY 14,14,ACTIVE,2001,2001,14
NIDA-CTN-0001,DS,01_090131,14,1,PARTICIPANT COMPLETED ACTIVE PHASE OF STUDY,Y,PARTICIPANT COMPLETED ACTIVE PHASE OF STUDY,DISPOSITION EVENT,STUDY DAY 14,14,ACTIVE,2001,2001,14
NIDA-CTN-0001,DS,01_090131,61,3,PARTICIPANT COMPLETED ACTIVE PHASE OF STUDY,Y,PARTICIPANT COMPLETED ACTIVE PHASE OF STUDY,DISPOSITION EVENT,FOLLOW-UP 1,15,ACTIVE,2002,2001,14
NIDA-CTN-0001,DS,01_090131,120,4,PARTICIPANT COMPLETED ACTIVE PHASE OF STUDY,Y,PARTICIPANT COMPLETED ACTIVE PHASE OF STUDY,DISPOSITION EVENT,FOLLOW-UP 2,16,ACTIVE,2002,2001,14
NIDA-CTN-0001,DS,01_090131,211,5,PARTICIPANT COMPLETED ACTIVE PHASE OF STUDY,Y,PARTICIPANT COMPLETED ACTIVE PHASE OF STUDY,DISPOSITION EVENT,FOLLOW-UP 3,17,ACTIVE,2002,2001,14
NIDA-CTN-0001,DS,01_090131,211,6,PARTICIPANT NO LONGER ATTENDS CLINIC,Y,PARTICIPANT NO LONGER ATTENDS CLINIC,DISPOSITION EVENT,FOLLOW-UP 3,17,ACTIVE,2002,2001,14
NIDA-CTN-0001,DS,01_091487,14,1,PARTICIPANT COMPLETED ACTIVE PHASE OF STUDY,Y,PARTICIPANT COMPLETED ACTIVE PHASE OF STUDY,DISPOSITION EVENT,STUDY DAY 14,14,ACTIVE,2001,2001,15
NIDA-CTN-0001,DS,01_091767,105,6,DISCHARGED FOR OTHER (SPECIFY),Y,DISCHARGED FOR OTHER (SPECIFY),DISPOSITION EVENT,FOLLOW-UP 2,16,ACTIVE,2002,2001,14
NIDA-CTN-0001,DS,01_091767,193,9,DISCHARGED FOR OTHER (SPECIFY),Y,DISCHARGED FOR OTHER (SPECIFY),DISPOSITION EVENT,FOLLOW-UP 3,17,ACTIVE,2002,2001,14
NIDA-CTN-0001,DS,01_091767,32,4,INPATIENT DETOX OR TREATMENT,Y,INPATIENT DETOX OR TREATMENT,DISPOSITION EVENT,FOLLOW-UP 1,15,ACTIVE,2001,2001,14
NIDA-CTN-0001,DS,01_091767,14,1,PARTICIPANT COMPLETED ACTIVE PHASE OF STUDY,Y,PARTICIPANT COMPLETED ACTIVE PHASE OF STUDY,DISPOSITION EVENT,STUDY DAY 14,14,ACTIVE,2001,2001,14
NIDA-CTN-0001,DS,01_091767,32,2,PARTICIPANT COMPLETED ACTIVE PHASE OF STUDY,Y,PARTICIPANT COMPLETED ACTIVE PHASE OF STUDY,DISPOSITION EVENT,FOLLOW-UP 1,15,ACTIVE,2001,2001,14
NIDA-CTN-0001,DS,01_091767,105,5,PARTICIPANT COMPLETED ACTIVE PHASE OF STUDY,Y,PARTICIPANT COMPLETED ACTIVE PHASE OF STUDY,DISPOSITION EVENT,FOLLOW-UP 2,16,ACTIVE,2002,2001,14
NIDA-CTN-0001,DS,01_091767,193,7,PARTICIPANT COMPLETED ACTIVE PHASE OF STUDY,Y,PARTICIPANT COMPLETED ACTIVE PHASE OF STUDY,DISPOSITION EVENT,FOLLOW-UP 3,17,ACTIVE,2002,2001,14
NIDA-CTN-0001,DS,01_091767,32,3,VOLUNTARY TRANSFERRED TO ANOTHER TREATMENT PROGRAM (INDICATE TYPE),Y,VOLUNTARY TRANSFERRED TO ANOTHER TREATMENT PROGRAM (INDICATE TYPE),DISPOSITION EVENT,FOLLOW-UP 1,15,ACTIVE,2001,2001,14
NIDA-CTN-0001,DS,01_091767,193,8,VOLUNTARY TRANSFERRED TO ANOTHER TREATMENT PROGRAM (INDICATE TYPE),Y,VOLUNTARY TRANSFERRED TO ANOTHER TREATMENT PROGRAM (INDICATE TYPE),DISPOSITION EVENT,FOLLOW-UP 3,17,ACTIVE,2002,2001,14
NIDA-CTN-0001,DS,01_093422,12,1,PARTICIPANT WITHDREW FROM STUDY,Y,PARTICIPANT WITHDREW FROM STUDY,DISPOSITION EVENT,STUDY DAY 14,14,ACTIVE,2002,2002,11
NIDA-CTN-0001,DS,01_094281,112,3,PARTICIPANT COMPLETED ACTIVE PHASE OF STUDY,Y,PARTICIPANT COMPLETED ACTIVE PHASE OF STUDY,DISPOSITION EVENT,FOLLOW-UP 2,16,ACTIVE,2002,2002,112
NIDA-CTN-0001,DS,01_094281,112,4,PARTICIPANT NO LONGER ATTENDS CLINIC,Y,PARTICIPANT NO LONGER ATTENDS CLINIC,DISPOSITION EVENT,FOLLOW-UP 2,16,ACTIVE,2002,2002,112
NIDA-CTN-0001,DS,01_094281,10,1,VOLUNTARY TRANSFERRED TO ANOTHER TREATMENT PROGRAM (INDICATE TYPE),Y,VOLUNTARY TRANSFERRED TO ANOTHER TREATMENT PROGRAM (INDICATE TYPE),DISPOSITION EVENT,STUDY DAY 10,10,ACTIVE,2001,2001,10
NIDA-CTN-0001,DS,01_094281,10,2,VOLUNTARY TRANSFERRED TO ANOTHER TREATMENT PROGRAM-THERAPEUTIC COMMUNITY,Y,VOLUNTARY TRANSFERRED TO ANOTHER TREATMENT PROGRAM-THERAPEUTIC COMMUNITY,DISPOSITION EVENT,STUDY DAY 10,10,ACTIVE,2001,2001,10
NIDA-CTN-0001,DS,01_096578,5,1,PARTICIPANT WITHDREW FROM STUDY,Y,PARTICIPANT WITHDREW FROM STUDY,DISPOSITION EVENT,STUDY DAY 5,5,ACTIVE,2001,2001,5
NIDA-CTN-0001,DS,01_096578,60,2,PARTICIPANT WITHDREW FROM STUDY,Y,PARTICIPANT WITHDREW FROM STUDY,DISPOSITION EVENT,FOLLOW-UP 1,15,ACTIVE,2001,2001,5
NIDA-CTN-0001,DS,01_096578,85,3,PARTICIPANT WITHDREW FROM STUDY,Y,PARTICIPANT WITHDREW FROM STUDY,DISPOSITION EVENT,FOLLOW-UP 2,16,ACTIVE,2001,2001,5
NIDA-CTN-0001,DS,01_096578,183,4,PARTICIPANT WITHDREW FROM STUDY,Y,PARTICIPANT WITHDREW FROM STUDY,DISPOSITION EVENT,FOLLOW-UP 3,17,ACTIVE,2002,2001,5
NIDA-CTN-0001,DS,01_096713,27,4,INPATIENT DETOX OR TREATMENT,Y,INPATIENT DETOX OR TREATMENT,DISPOSITION EVENT,FOLLOW-UP 1,15,ACTIVE,2001,2001,14
NIDA-CTN-0001,DS,01_096713,182,8,INPATIENT DETOX OR TREATMENT,Y,INPATIENT DETOX OR TREATMENT,DISPOSITION EVENT,FOLLOW-UP 3,17,ACTIVE,2002,2001,14
NIDA-CTN-0001,DS,01_096713,14,1,PARTICIPANT COMPLETED ACTIVE PHASE OF STUDY,Y,PARTICIPANT COMPLETED ACTIVE PHASE OF STUDY,DISPOSITION EVENT,STUDY DAY 14,14,ACTIVE,2001,2001,14
NIDA-CTN-0001,DS,01_096713,27,2,PARTICIPANT COMPLETED ACTIVE PHASE OF STUDY,Y,PARTICIPANT COMPLETED ACTIVE PHASE OF STUDY,DISPOSITION EVENT,FOLLOW-UP 1,15,ACTIVE,2001,2001,14
NIDA-CTN-0001,DS,01_096713,121,5,PARTICIPANT COMPLETED ACTIVE PHASE OF STUDY,Y,PARTICIPANT COMPLETED ACTIVE PHASE OF STUDY,DISPOSITION EVENT,FOLLOW-UP 2,16,ACTIVE,2002,2001,14
NIDA-CTN-0001,DS,01_096713,182,6,PARTICIPANT COMPLETED ACTIVE PHASE OF STUDY,Y,PARTICIPANT COMPLETED ACTIVE PHASE OF STUDY,DISPOSITION EVENT,FOLLOW-UP 3,17,ACTIVE,2002,2001,14
NIDA-CTN-0001,DS,01_096713,27,3,VOLUNTARY TRANSFERRED TO ANOTHER TREATMENT PROGRAM (INDICATE TYPE),Y,VOLUNTARY TRANSFERRED TO ANOTHER TREATMENT PROGRAM (INDICATE TYPE),DISPOSITION EVENT,FOLLOW-UP 1,15,ACTIVE,2001,2001,14
NIDA-CTN-0001,DS,01_096713,182,7,VOLUNTARY TRANSFERRED TO ANOTHER TREATMENT PROGRAM (INDICATE TYPE),Y,VOLUNTARY TRANSFERRED TO ANOTHER TREATMENT PROGRAM (INDICATE TYPE),DISPOSITION EVENT,FOLLOW-UP 3,17,ACTIVE,2002,2001,14
NIDA-CTN-0001,DS,01_096723,14,1,PARTICIPANT COMPLETED ACTIVE PHASE OF STUDY,Y,PARTICIPANT COMPLETED ACTIVE PHASE OF STUDY,DISPOSITION EVENT,STUDY DAY 14,14,ACTIVE,2001,2001,14
NIDA-CTN-0001,DS,01_097261,7,1,PARTICIPANT IS IN A CONTROLLED ENVIRONMENT,Y,PARTICIPANT IS IN A CONTROLLED ENVIRONMENT,DISPOSITION EVENT,STUDY DAY 7,7,ACTIVE,2001,2001,7
NIDA-CTN-0001,DS,01_097261,30,2,PARTICIPANT WITHDREW FROM STUDY,Y,PARTICIPANT WITHDREW FROM STUDY,DISPOSITION EVENT,FOLLOW-UP 1,15,ACTIVE,2001,2001,7
NIDA-CTN-0001,DS,01_097261,91,5,PARTICIPANT WITHDREW FROM STUDY,Y,PARTICIPANT WITHDREW FROM STUDY,DISPOSITION EVENT,FOLLOW-UP 2,16,ACTIVE,2001,2001,7
NIDA-CTN-0001,DS,01_097261,30,3,VOLUNTARY TRANSFERRED TO ANOTHER TREATMENT PROGRAM (INDICATE TYPE),Y,VOLUNTARY TRANSFERRED TO ANOTHER TREATMENT PROGRAM (INDICATE TYPE),DISPOSITION EVENT,FOLLOW-UP 1,15,ACTIVE,2001,2001,7
NIDA-CTN-0001,DS,01_097261,91,6,VOLUNTARY TRANSFERRED TO ANOTHER TREATMENT PROGRAM (INDICATE TYPE),Y,VOLUNTARY TRANSFERRED TO ANOTHER TREATMENT PROGRAM (INDICATE TYPE),DISPOSITION EVENT,FOLLOW-UP 2,16,ACTIVE,2001,2001,7
NIDA-CTN-0001,DS,01_097261,184,8,VOLUNTARY TRANSFERRED TO ANOTHER TREATMENT PROGRAM (INDICATE TYPE),Y,VOLUNTARY TRANSFERRED TO ANOTHER TREATMENT PROGRAM (INDICATE TYPE),DISPOSITION EVENT,FOLLOW-UP 3,17,ACTIVE,2002,2001,7
NIDA-CTN-0001,DS,01_097261,30,4,VOLUNTARY TRANSFERRED TO ANOTHER TREATMENT PROGRAM-THERAPEUTIC COMMUNITY,Y,VOLUNTARY TRANSFERRED TO ANOTHER TREATMENT PROGRAM-THERAPEUTIC COMMUNITY,DISPOSITION EVENT,FOLLOW-UP 1,15,ACTIVE,2001,2001,7
NIDA-CTN-0001,DS,01_097261,91,7,VOLUNTARY TRANSFERRED TO ANOTHER TREATMENT PROGRAM-THERAPEUTIC COMMUNITY,Y,VOLUNTARY TRANSFERRED TO ANOTHER TREATMENT PROGRAM-THERAPEUTIC COMMUNITY,DISPOSITION EVENT,FOLLOW-UP 2,16,ACTIVE,2001,2001,7
NIDA-CTN-0001,DS,01_097261,184,9,VOLUNTARY TRANSFERRED TO ANOTHER TREATMENT PROGRAM-THERAPEUTIC COMMUNITY,Y,VOLUNTARY TRANSFERRED TO ANOTHER TREATMENT PROGRAM-THERAPEUTIC COMMUNITY,DISPOSITION EVENT,FOLLOW-UP 3,17,ACTIVE,2002,2001,7
NIDA-CTN-0001,DS,01_097324," ",1,FAILED TO MEET INCLUSION CRITERIA OR MET EXCLUSION CRITERIA AS NOTED ABOVE,Y,FAILED TO MEET INCLUSION CRITERIA OR MET EXCLUSION CRITERIA AS NOTED ABOVE,DISPOSITION EVENT,"BASELINE, ANY DAY PRIOR TO FIRST DOSE",0,SCREENING,2001,," "
NIDA-CTN-0001,DS,01_097597," ",1,FAILED TO MEET INCLUSION CRITERIA OR MET EXCLUSION CRITERIA AS NOTED ABOVE,Y,FAILED TO MEET INCLUSION CRITERIA OR MET EXCLUSION CRITERIA AS NOTED ABOVE,DISPOSITION EVENT,"BASELINE, ANY DAY PRIOR TO FIRST DOSE",0,SCREENING,2001,," "
NIDA-CTN-0001,DS,01_098468,14,1,PARTICIPANT COMPLETED ACTIVE PHASE OF STUDY,Y,PARTICIPANT COMPLETED ACTIVE PHASE OF STUDY,DISPOSITION EVENT,STUDY DAY 14,14,ACTIVE,2001,2001,14
NIDA-CTN-0001,DS,01_098468,501,2,PARTICIPANT COMPLETED ACTIVE PHASE OF STUDY,Y,PARTICIPANT COMPLETED ACTIVE PHASE OF STUDY,DISPOSITION EVENT,FOLLOW-UP 1,15,ACTIVE,2002,2001,30
NIDA-CTN-0001,DS,01_098468,501,3,PARTICIPANT NO LONGER ATTENDS CLINIC,Y,PARTICIPANT NO LONGER ATTENDS CLINIC,DISPOSITION EVENT,FOLLOW-UP 1,15,ACTIVE,2002,2001,30
NIDA-CTN-0001,DS,01_098522," ",1,FAILED TO MEET INCLUSION CRITERIA OR MET EXCLUSION CRITERIA AS NOTED ABOVE,Y,FAILED TO MEET INCLUSION CRITERIA OR MET EXCLUSION CRITERIA AS NOTED ABOVE,DISPOSITION EVENT,"BASELINE, ANY DAY PRIOR TO FIRST DOSE",0,SCREENING,2001,," "
NIDA-CTN-0001,DS,01_099356,3,1,PARTICIPANT WITHDREW FROM STUDY,Y,PARTICIPANT WITHDREW FROM STUDY,DISPOSITION EVENT,STUDY DAY 3,3,ACTIVE,2002,2002,3
NIDA-CTN-0001,DS,01_099356,3,2,VOLUNTARY TRANSFERRED TO ANOTHER TREATMENT PROGRAM (INDICATE TYPE),Y,VOLUNTARY TRANSFERRED TO ANOTHER TREATMENT PROGRAM (INDICATE TYPE),DISPOSITION EVENT,STUDY DAY 3,3,ACTIVE,2002,2002,3
NIDA-CTN-0001,DS,01_099356,3,3,VOLUNTARY TRANSFERRED TO ANOTHER TREATMENT PROGRAM-METHADONE,Y,VOLUNTARY TRANSFERRED TO ANOTHER TREATMENT PROGRAM-METHADONE,DISPOSITION EVENT,STUDY DAY 3,3,ACTIVE,2002,2002,3
