STUDYID,DOMAIN,USUBJID,SCSEQ,SCTESTCD,SCTEST,SCORRES,SCSTRESC,SCSTRESN,SCDTC,SCDY
NIDA-CTN-0001,SC,01_000579,13,ALLINCL,MET ALL INCLUSION & NO EXCLUSION CRIT.,YES,YES," ",2001,-1
NIDA-CTN-0001,SC,01_000579,9,EDUCYRS,EDUCATION COMPLETED,14,14,14,2001,-1
NIDA-CTN-0001,SC,01_000579,11,EMPLOY30,USUAL EMPLOYMENT PATTERN: PAST 30 DAYS,UNEMPLOYED,UNEMPLOYED," ",2001,-1
NIDA-CTN-0001,SC,01_000579,10,EMPLOY3Y,USUAL EMPLOYMENT PATTERN: PAST 3 YEARS,FULL TIME (35+ HRS/WK),FULL TIME (35+ HRS/WK)," ",2001,-1
NIDA-CTN-0001,SC,01_000579,12,MARITAL,MARITAL STATUS,DIVORCED,DIVORCED," ",2001,-1
NIDA-CTN-0001,SC,01_001362,13,ALLINCL,MARTIAL,YES,YES," ",2001,1
NIDA-CTN-0001,SC,01_001362,9,EDUCYRS,EDUCATION COMPLETED,13,13,13,2001,1
NIDA-CTN-0001,SC,01_001362,11,EMPLOY30,USUAL EMPLOYMENT PATTERN: PAST 30 DAYS,UNEMPLOYED,UNEMPLOYED," ",2001,1
NIDA-CTN-0001,SC,01_001362,10,EMPLOY3Y,USUAL EMPLOYMENT PATTERN: PAST 3 YEARS,UNEMPLOYED,UNEMPLOYED," ",2001,1
NIDA-CTN-0001,SC,01_001362,12,MARITAL,MARITAL STATUS,NEVER MARRIED,NEVER MARRIED," ",2001,1
NIDA-CTN-0001,SC,01_001490,13,ALLINCL,MET ALL INCLUSION & NO EXCLUSION CRIT.,YES,YES," ",2001,-1
NIDA-CTN-0001,SC,01_001490,9,EDUCYRS,EDUCATION COMPLETED,14,14,14,2001,-1
NIDA-CTN-0001,SC,01_001490,11,EMPLOY30,USUAL EMPLOYMENT PATTERN: PAST 30 DAYS,UNEMPLOYED,UNEMPLOYED," ",2001,-1
NIDA-CTN-0001,SC,01_001490,10,EMPLOY3Y,USUAL EMPLOYMENT PATTERN: PAST 3 YEARS,PART TIME (IRREGULAR DAYWORK),PART TIME (IRREGULAR DAYWORK)," ",2001,-1
NIDA-CTN-0001,SC,01_001490,12,MARITAL,MARITAL STATUS,NEVER MARRIED,NEVER MARRIED," ",2001,-1
NIDA-CTN-0001,SC,01_002199,13,ALLINCL,MET ALL INCLUSION & NO EXCLUSION CRIT.,YES,YES," ",2001,1
NIDA-CTN-0001,SC,01_002199,9,EDUCYRS,EDUCATION COMPLETED,13,13,13,2001,1
NIDA-CTN-0001,SC,01_002199,11,EMPLOY30,USUAL EMPLOYMENT PATTERN: PAST 30 DAYS,PART TIME (REGULAR HOURS),PART TIME (REGULAR HOURS)," ",2001,1
NIDA-CTN-0001,SC,01_002199,10,EMPLOY3Y,USUAL EMPLOYMENT PATTERN: PAST 3 YEARS,PART TIME (REGULAR HOURS),PART TIME (REGULAR HOURS)," ",2001,1
NIDA-CTN-0001,SC,01_002199,12,MARITAL,MARITAL STATUS,NEVER MARRIED,NEVER MARRIED," ",2001,1
NIDA-CTN-0001,SC,01_002844,14,ALLINCL,MET ALL INCLUSION & NO EXCLUSION CRIT.,YES,YES," ",2001,-1
NIDA-CTN-0001,SC,01_002844,10,EDUCYRS,EDUCATION COMPLETED,11,11,11,2001,-1
NIDA-CTN-0001,SC,01_002844,12,EMPLOY30,USUAL EMPLOYMENT PATTERN: PAST 30 DAYS,STUDENT,STUDENT," ",2001,-1
NIDA-CTN-0001,SC,01_002844,11,EMPLOY3Y,USUAL EMPLOYMENT PATTERN: PAST 3 YEARS,STUDENT,STUDENT," ",2001,-1
NIDA-CTN-0001,SC,01_002844,13,MARITAL,MARITAL STATUS,NEVER MARRIED,NEVER MARRIED," ",2001,-1
NIDA-CTN-0001,SC,01_003330,14,ALLINCL,MET ALL INCLUSION & NO EXCLUSION CRIT.,YES,YES," ",2001,-2
NIDA-CTN-0001,SC,01_003330,10,EDUCYRS,EDUCATION COMPLETED,13,13,13,2001,-2
NIDA-CTN-0001,SC,01_003330,12,EMPLOY30,USUAL EMPLOYMENT PATTERN: PAST 30 DAYS,FULL TIME (35+ HRS/WK),FULL TIME (35+ HRS/WK)," ",2001,-2
NIDA-CTN-0001,SC,01_003330,11,EMPLOY3Y,USUAL EMPLOYMENT PATTERN: PAST 3 YEARS,FULL TIME (35+ HRS/WK),FULL TIME (35+ HRS/WK)," ",2001,-2
NIDA-CTN-0001,SC,01_003330,13,MARITAL,MARITAL STATUS,LEGALLY MARRIED,LEGALLY MARRIED," ",2001,-2
NIDA-CTN-0001,SC,01_003653,13,ALLINCL,MET ALL INCLUSION & NO EXCLUSION CRIT.,YES,YES," ",2002,-5
NIDA-CTN-0001,SC,01_003653,9,EDUCYRS,EDUCATION COMPLETED,12,12,12,2002,-5
NIDA-CTN-0001,SC,01_003653,11,EMPLOY30,USUAL EMPLOYMENT PATTERN: PAST 30 DAYS,PART TIME (IRREGULAR DAYWORK),PART TIME (IRREGULAR DAYWORK)," ",2002,-5
NIDA-CTN-0001,SC,01_003653,10,EMPLOY3Y,USUAL EMPLOYMENT PATTERN: PAST 3 YEARS,PART TIME (IRREGULAR DAYWORK),PART TIME (IRREGULAR DAYWORK)," ",2002,-5
NIDA-CTN-0001,SC,01_003653,12,MARITAL,MARITAL STATUS,NEVER MARRIED,NEVER MARRIED," ",2002,-5
NIDA-CTN-0001,SC,01_005053,14,ALLINCL,MET ALL INCLUSION & NO EXCLUSION CRIT.,NO,NO," ",2001," "
NIDA-CTN-0001,SC,01_005053,10,EDUCYRS,EDUCATION COMPLETED,12,12,12,2001," "
NIDA-CTN-0001,SC,01_005053,12,EMPLOY30,USUAL EMPLOYMENT PATTERN: PAST 30 DAYS,PART TIME (IRREGULAR DAYWORK),PART TIME (IRREGULAR DAYWORK)," ",2001," "
NIDA-CTN-0001,SC,01_005053,11,EMPLOY3Y,USUAL EMPLOYMENT PATTERN: PAST 3 YEARS,FULL TIME (35+ HRS/WK),FULL TIME (35+ HRS/WK)," ",2001," "
NIDA-CTN-0001,SC,01_005053,13,MARITAL,MARITAL STATUS,LEGALLY MARRIED,LEGALLY MARRIED," ",2001," "
NIDA-CTN-0001,SC,01_005163,10,ALLINCL,MET ALL INCLUSION & NO EXCLUSION CRIT.,NO,NO," ",2002," "
NIDA-CTN-0001,SC,01_006180,14,ALLINCL,MET ALL INCLUSION & NO EXCLUSION CRIT.,YES,YES," ",2001,-3
NIDA-CTN-0001,SC,01_006180,10,EDUCYRS,EDUCATION COMPLETED,11,11,11,2001,-3
NIDA-CTN-0001,SC,01_006180,12,EMPLOY30,USUAL EMPLOYMENT PATTERN: PAST 30 DAYS,UNEMPLOYED,UNEMPLOYED," ",2001,-3
NIDA-CTN-0001,SC,01_006180,11,EMPLOY3Y,USUAL EMPLOYMENT PATTERN: PAST 3 YEARS,FULL TIME (35+ HRS/WK),FULL TIME (35+ HRS/WK)," ",2001,-3
NIDA-CTN-0001,SC,01_006180,13,MARITAL,MARITAL STATUS,LEGALLY MARRIED,LEGALLY MARRIED," ",2001,-3
NIDA-CTN-0001,SC,01_006253,14,ALLINCL,MET ALL INCLUSION & NO EXCLUSION CRIT.,YES,YES," ",2002,-1
NIDA-CTN-0001,SC,01_006253,10,EDUCYRS,EDUCATION COMPLETED,14,14,14,2002,-1
NIDA-CTN-0001,SC,01_006253,12,EMPLOY30,USUAL EMPLOYMENT PATTERN: PAST 30 DAYS,FULL TIME (35+ HRS/WK),FULL TIME (35+ HRS/WK)," ",2002,-1
NIDA-CTN-0001,SC,01_006253,11,EMPLOY3Y,USUAL EMPLOYMENT PATTERN: PAST 3 YEARS,FULL TIME (35+ HRS/WK),FULL TIME (35+ HRS/WK)," ",2002,-1
NIDA-CTN-0001,SC,01_006253,13,MARITAL,MARITAL STATUS,NEVER MARRIED,NEVER MARRIED," ",2002,-1
NIDA-CTN-0001,SC,01_006566,13,ALLINCL,MET ALL INCLUSION & NO EXCLUSION CRIT.,YES,YES," ",2001,1
NIDA-CTN-0001,SC,01_006566,9,EDUCYRS,EDUCATION COMPLETED,11,11,11,2001,1
NIDA-CTN-0001,SC,01_006566,11,EMPLOY30,USUAL EMPLOYMENT PATTERN: PAST 30 DAYS,UNEMPLOYED,UNEMPLOYED," ",2001,1
NIDA-CTN-0001,SC,01_006566,10,EMPLOY3Y,USUAL EMPLOYMENT PATTERN: PAST 3 YEARS,PART TIME (REGULAR HOURS),PART TIME (REGULAR HOURS)," ",2001,1
NIDA-CTN-0001,SC,01_006566,12,MARITAL,MARITAL STATUS,NEVER MARRIED,NEVER MARRIED," ",2001,1
NIDA-CTN-0001,SC,01_008148,13,ALLINCL,MET ALL INCLUSION & NO EXCLUSION CRIT.,YES,YES," ",2001,1
NIDA-CTN-0001,SC,01_008148,9,EDUCYRS,EDUCATION COMPLETED,16,16,16,2001,1
NIDA-CTN-0001,SC,01_008148,11,EMPLOY30,USUAL EMPLOYMENT PATTERN: PAST 30 DAYS,UNEMPLOYED,UNEMPLOYED," ",2001,1
NIDA-CTN-0001,SC,01_008148,10,EMPLOY3Y,USUAL EMPLOYMENT PATTERN: PAST 3 YEARS,FULL TIME (35+ HRS/WK),FULL TIME (35+ HRS/WK)," ",2001,1
NIDA-CTN-0001,SC,01_008148,12,MARITAL,MARITAL STATUS,SEPARATED,SEPARATED," ",2001,1
NIDA-CTN-0001,SC,01_009365,13,ALLINCL,MET ALL INCLUSION & NO EXCLUSION CRIT.,YES,YES," ",2001,1
NIDA-CTN-0001,SC,01_009365,9,EDUCYRS,EDUCATION COMPLETED,13,13,13,2001,1
NIDA-CTN-0001,SC,01_009365,11,EMPLOY30,USUAL EMPLOYMENT PATTERN: PAST 30 DAYS,STUDENT,STUDENT," ",2001,1
NIDA-CTN-0001,SC,01_009365,10,EMPLOY3Y,USUAL EMPLOYMENT PATTERN: PAST 3 YEARS,FULL TIME (35+ HRS/WK),FULL TIME (35+ HRS/WK)," ",2001,1
NIDA-CTN-0001,SC,01_009365,12,MARITAL,MARITAL STATUS,NEVER MARRIED,NEVER MARRIED," ",2001,1
NIDA-CTN-0001,SC,01_009835,13,ALLINCL,MET ALL INCLUSION & NO EXCLUSION CRIT.,NO,NO," ",2002," "
NIDA-CTN-0001,SC,01_009835,9,EDUCYRS,EDUCATION COMPLETED,14,14,14,2002," "
NIDA-CTN-0001,SC,01_009835,11,EMPLOY30,USUAL EMPLOYMENT PATTERN: PAST 30 DAYS,HOMEMAKER,HOMEMAKER," ",2002," "
NIDA-CTN-0001,SC,01_009835,10,EMPLOY3Y,USUAL EMPLOYMENT PATTERN: PAST 3 YEARS,FULL TIME (35+ HRS/WK),FULL TIME (35+ HRS/WK)," ",2002," "
NIDA-CTN-0001,SC,01_009835,12,MARITAL,MARITAL STATUS,SEPARATED,SEPARATED," ",2002," "
NIDA-CTN-0001,SC,01_010909,14,ALLINCL,MET ALL INCLUSION & NO EXCLUSION CRIT.,YES,YES," ",2001,-1
NIDA-CTN-0001,SC,01_010909,10,EDUCYRS,EDUCATION COMPLETED,12,12,12,2001,-1
NIDA-CTN-0001,SC,01_010909,12,EMPLOY30,USUAL EMPLOYMENT PATTERN: PAST 30 DAYS,FULL TIME (35+ HRS/WK),FULL TIME (35+ HRS/WK)," ",2001,-1
NIDA-CTN-0001,SC,01_010909,11,EMPLOY3Y,USUAL EMPLOYMENT PATTERN: PAST 3 YEARS,FULL TIME (35+ HRS/WK),FULL TIME (35+ HRS/WK)," ",2001,-1
NIDA-CTN-0001,SC,01_010909,13,MARITAL,MARITAL STATUS,LIVING WITH PARTNER/COHABITATING,LIVING WITH PARTNER/COHABITATING," ",2001,-1
NIDA-CTN-0001,SC,01_012272,13,ALLINCL,MET ALL INCLUSION & NO EXCLUSION CRIT.,YES,YES," ",2002,-1
NIDA-CTN-0001,SC,01_012272,9,EDUCYRS,EDUCATION COMPLETED,15,15,15,2002,-1
NIDA-CTN-0001,SC,01_012272,11,EMPLOY30,USUAL EMPLOYMENT PATTERN: PAST 30 DAYS,UNEMPLOYED,UNEMPLOYED," ",2002,-1
NIDA-CTN-0001,SC,01_012272,10,EMPLOY3Y,USUAL EMPLOYMENT PATTERN: PAST 3 YEARS,FULL TIME (35+ HRS/WK),FULL TIME (35+ HRS/WK)," ",2002,-1
NIDA-CTN-0001,SC,01_012272,12,MARITAL,MARITAL STATUS,NEVER MARRIED,NEVER MARRIED," ",2002,-1
NIDA-CTN-0001,SC,01_013066,14,ALLINCL,MET ALL INCLUSION & NO EXCLUSION CRIT.,YES,YES," ",2001,-1
NIDA-CTN-0001,SC,01_013066,10,EDUCYRS,EDUCATION COMPLETED,13,13,13,2001,-1
NIDA-CTN-0001,SC,01_013066,12,EMPLOY30,USUAL EMPLOYMENT PATTERN: PAST 30 DAYS,UNEMPLOYED,UNEMPLOYED," ",2001,-1
NIDA-CTN-0001,SC,01_013066,11,EMPLOY3Y,USUAL EMPLOYMENT PATTERN: PAST 3 YEARS,FULL TIME (35+ HRS/WK),FULL TIME (35+ HRS/WK)," ",2001,-1
NIDA-CTN-0001,SC,01_013066,13,MARITAL,MARITAL STATUS,NEVER MARRIED,NEVER MARRIED," ",2001,-1
NIDA-CTN-0001,SC,01_013173,13,ALLINCL,MET ALL INCLUSION & NO EXCLUSION CRIT.,YES,YES," ",2001,1
NIDA-CTN-0001,SC,01_013173,9,EDUCYRS,EDUCATION COMPLETED,12,12,12,2001,1
NIDA-CTN-0001,SC,01_013173,11,EMPLOY30,USUAL EMPLOYMENT PATTERN: PAST 30 DAYS,UNEMPLOYED,UNEMPLOYED," ",2001,1
NIDA-CTN-0001,SC,01_013173,10,EMPLOY3Y,USUAL EMPLOYMENT PATTERN: PAST 3 YEARS,PART TIME (REGULAR HOURS),PART TIME (REGULAR HOURS)," ",2001,1
NIDA-CTN-0001,SC,01_013173,12,MARITAL,MARITAL STATUS,DIVORCED,DIVORCED," ",2001,1
NIDA-CTN-0001,SC,01_015578,14,ALLINCL,MET ALL INCLUSION & NO EXCLUSION CRIT.,NO,NO," ",2002," "
NIDA-CTN-0001,SC,01_015578,10,EDUCYRS,EDUCATION COMPLETED,14,14,14,2002," "
NIDA-CTN-0001,SC,01_015578,12,EMPLOY30,USUAL EMPLOYMENT PATTERN: PAST 30 DAYS,PART TIME (IRREGULAR DAYWORK),PART TIME (IRREGULAR DAYWORK)," ",2002," "
NIDA-CTN-0001,SC,01_015578,11,EMPLOY3Y,USUAL EMPLOYMENT PATTERN: PAST 3 YEARS,FULL TIME (35+ HRS/WK),FULL TIME (35+ HRS/WK)," ",2002," "
NIDA-CTN-0001,SC,01_015578,13,MARITAL,MARITAL STATUS,DIVORCED,DIVORCED," ",2002," "
NIDA-CTN-0001,SC,01_015991,13,ALLINCL,MET ALL INCLUSION & NO EXCLUSION CRIT.,YES,YES," ",2001,1
NIDA-CTN-0001,SC,01_015991,9,EDUCYRS,EDUCATION COMPLETED,13,13,13,2001,1
NIDA-CTN-0001,SC,01_015991,11,EMPLOY30,USUAL EMPLOYMENT PATTERN: PAST 30 DAYS,PART TIME (REGULAR HOURS),PART TIME (REGULAR HOURS)," ",2001,1
NIDA-CTN-0001,SC,01_015991,10,EMPLOY3Y,USUAL EMPLOYMENT PATTERN: PAST 3 YEARS,PART TIME (REGULAR HOURS),PART TIME (REGULAR HOURS)," ",2001,1
NIDA-CTN-0001,SC,01_015991,12,MARITAL,MARITAL STATUS,LEGALLY MARRIED,LEGALLY MARRIED," ",2001,1
NIDA-CTN-0001,SC,01_017348,14,ALLINCL,MET ALL INCLUSION & NO EXCLUSION CRIT.,NO,NO," ",2001," "
NIDA-CTN-0001,SC,01_017348,10,EDUCYRS,EDUCATION COMPLETED,13,13,13,2001," "
NIDA-CTN-0001,SC,01_017348,12,EMPLOY30,USUAL EMPLOYMENT PATTERN: PAST 30 DAYS,UNEMPLOYED,UNEMPLOYED," ",2001," "
NIDA-CTN-0001,SC,01_017348,11,EMPLOY3Y,USUAL EMPLOYMENT PATTERN: PAST 3 YEARS,FULL TIME (35+ HRS/WK),FULL TIME (35+ HRS/WK)," ",2001," "
NIDA-CTN-0001,SC,01_017348,13,MARITAL,MARITAL STATUS,SEPARATED,SEPARATED," ",2001," "
NIDA-CTN-0001,SC,01_018076,13,ALLINCL,MET ALL INCLUSION & NO EXCLUSION CRIT.,YES,YES," ",2001,-1
NIDA-CTN-0001,SC,01_018076,9,EDUCYRS,EDUCATION COMPLETED,14,14,14,2001,-1
NIDA-CTN-0001,SC,01_018076,11,EMPLOY30,USUAL EMPLOYMENT PATTERN: PAST 30 DAYS,PART TIME (IRREGULAR DAYWORK),PART TIME (IRREGULAR DAYWORK)," ",2001,-1
NIDA-CTN-0001,SC,01_018076,10,EMPLOY3Y,USUAL EMPLOYMENT PATTERN: PAST 3 YEARS,STUDENT,STUDENT," ",2001,-1
NIDA-CTN-0001,SC,01_018076,12,MARITAL,MARITAL STATUS,NEVER MARRIED,NEVER MARRIED," ",2001,-1
NIDA-CTN-0001,SC,01_018415,13,ALLINCL,MET ALL INCLUSION & NO EXCLUSION CRIT.,YES,YES," ",2001,1
NIDA-CTN-0001,SC,01_018415,9,EDUCYRS,EDUCATION COMPLETED,12,12,12,2001,1
NIDA-CTN-0001,SC,01_018415,11,EMPLOY30,USUAL EMPLOYMENT PATTERN: PAST 30 DAYS,UNEMPLOYED,UNEMPLOYED," ",2001,1
NIDA-CTN-0001,SC,01_018415,10,EMPLOY3Y,USUAL EMPLOYMENT PATTERN: PAST 3 YEARS,STUDENT,STUDENT," ",2001,1
NIDA-CTN-0001,SC,01_018415,12,MARITAL,MARITAL STATUS,NEVER MARRIED,NEVER MARRIED," ",2001,1
NIDA-CTN-0001,SC,01_018599,13,ALLINCL,MET ALL INCLUSION & NO EXCLUSION CRIT.,YES,YES," ",2002,1
NIDA-CTN-0001,SC,01_018599,9,EDUCYRS,EDUCATION COMPLETED,14,14,14,2002,1
NIDA-CTN-0001,SC,01_018599,11,EMPLOY30,USUAL EMPLOYMENT PATTERN: PAST 30 DAYS,UNEMPLOYED,UNEMPLOYED," ",2002,1
NIDA-CTN-0001,SC,01_018599,10,EMPLOY3Y,USUAL EMPLOYMENT PATTERN: PAST 3 YEARS,PART TIME (IRREGULAR DAYWORK),PART TIME (IRREGULAR DAYWORK)," ",2002,1
NIDA-CTN-0001,SC,01_018599,12,MARITAL,MARITAL STATUS,DIVORCED,DIVORCED," ",2002,1
NIDA-CTN-0001,SC,01_018881,9,ALLINCL,MET ALL INCLUSION & NO EXCLUSION CRIT.,NO,NO," ",2001," "
NIDA-CTN-0001,SC,01_019437,13,ALLINCL,MET ALL INCLUSION & NO EXCLUSION CRIT.,YES,YES," ",2002,1
NIDA-CTN-0001,SC,01_019437,9,EDUCYRS,EDUCATION COMPLETED,12,12,12,2002,1
NIDA-CTN-0001,SC,01_019437,11,EMPLOY30,USUAL EMPLOYMENT PATTERN: PAST 30 DAYS,UNEMPLOYED,UNEMPLOYED," ",2002,1
NIDA-CTN-0001,SC,01_019437,10,EMPLOY3Y,USUAL EMPLOYMENT PATTERN: PAST 3 YEARS,FULL TIME (35+ HRS/WK),FULL TIME (35+ HRS/WK)," ",2002,1
NIDA-CTN-0001,SC,01_019437,12,MARITAL,MARITAL STATUS,LIVING WITH PARTNER/COHABITATING,LIVING WITH PARTNER/COHABITATING," ",2002,1
NIDA-CTN-0001,SC,01_020369,13,ALLINCL,MET ALL INCLUSION & NO EXCLUSION CRIT.,YES,YES," ",2001,1
NIDA-CTN-0001,SC,01_020369,9,EDUCYRS,EDUCATION COMPLETED,13,13,13,2001,1
NIDA-CTN-0001,SC,01_020369,11,EMPLOY30,USUAL EMPLOYMENT PATTERN: PAST 30 DAYS,UNEMPLOYED,UNEMPLOYED," ",2001,1
NIDA-CTN-0001,SC,01_020369,10,EMPLOY3Y,USUAL EMPLOYMENT PATTERN: PAST 3 YEARS,FULL TIME (35+ HRS/WK),FULL TIME (35+ HRS/WK)," ",2001,1
NIDA-CTN-0001,SC,01_020369,12,MARITAL,MARITAL STATUS,NEVER MARRIED,NEVER MARRIED," ",2001,1
NIDA-CTN-0001,SC,01_021383,13,ALLINCL,MET ALL INCLUSION & NO EXCLUSION CRIT.,NO,NO," ",2001," "
NIDA-CTN-0001,SC,01_021383,9,EDUCYRS,EDUCATION COMPLETED,13,13,13,2001," "
NIDA-CTN-0001,SC,01_021383,11,EMPLOY30,USUAL EMPLOYMENT PATTERN: PAST 30 DAYS,UNEMPLOYED,UNEMPLOYED," ",2001," "
NIDA-CTN-0001,SC,01_021383,10,EMPLOY3Y,USUAL EMPLOYMENT PATTERN: PAST 3 YEARS,FULL TIME (35+ HRS/WK),FULL TIME (35+ HRS/WK)," ",2001," "
NIDA-CTN-0001,SC,01_021383,12,MARITAL,MARITAL STATUS,NEVER MARRIED,NEVER MARRIED," ",2001," "
NIDA-CTN-0001,SC,01_021516,13,ALLINCL,MET ALL INCLUSION & NO EXCLUSION CRIT.,YES,YES," ",2001,-1
NIDA-CTN-0001,SC,01_021516,9,EDUCYRS,EDUCATION COMPLETED,12,12,12,2001,-1
NIDA-CTN-0001,SC,01_021516,11,EMPLOY30,USUAL EMPLOYMENT PATTERN: PAST 30 DAYS,FULL TIME (35+ HRS/WK),FULL TIME (35+ HRS/WK)," ",2001,-1
NIDA-CTN-0001,SC,01_021516,10,EMPLOY3Y,USUAL EMPLOYMENT PATTERN: PAST 3 YEARS,FULL TIME (35+ HRS/WK),FULL TIME (35+ HRS/WK)," ",2001,-1
NIDA-CTN-0001,SC,01_021516,12,MARITAL,MARITAL STATUS,NEVER MARRIED,NEVER MARRIED," ",2001,-1
NIDA-CTN-0001,SC,01_021985,13,ALLINCL,MET ALL INCLUSION & NO EXCLUSION CRIT.,YES,YES," ",2001,1
NIDA-CTN-0001,SC,01_021985,9,EDUCYRS,EDUCATION COMPLETED,16,16,16,2001,1
NIDA-CTN-0001,SC,01_021985,11,EMPLOY30,USUAL EMPLOYMENT PATTERN: PAST 30 DAYS,FULL TIME (35+ HRS/WK),FULL TIME (35+ HRS/WK)," ",2001,1
NIDA-CTN-0001,SC,01_021985,10,EMPLOY3Y,USUAL EMPLOYMENT PATTERN: PAST 3 YEARS,FULL TIME (35+ HRS/WK),FULL TIME (35+ HRS/WK)," ",2001,1
NIDA-CTN-0001,SC,01_021985,12,MARITAL,MARITAL STATUS,NEVER MARRIED,NEVER MARRIED," ",2001,1
NIDA-CTN-0001,SC,01_023001,13,ALLINCL,MET ALL INCLUSION & NO EXCLUSION CRIT.,YES,YES," ",2001,1
NIDA-CTN-0001,SC,01_023001,9,EDUCYRS,EDUCATION COMPLETED,15,15,15,2001,1
NIDA-CTN-0001,SC,01_023001,11,EMPLOY30,USUAL EMPLOYMENT PATTERN: PAST 30 DAYS,FULL TIME (35+ HRS/WK),FULL TIME (35+ HRS/WK)," ",2001,1
NIDA-CTN-0001,SC,01_023001,10,EMPLOY3Y,USUAL EMPLOYMENT PATTERN: PAST 3 YEARS,FULL TIME (35+ HRS/WK),FULL TIME (35+ HRS/WK)," ",2001,1
NIDA-CTN-0001,SC,01_023001,12,MARITAL,MARITAL STATUS,LEGALLY MARRIED,LEGALLY MARRIED," ",2001,1
NIDA-CTN-0001,SC,01_023438,13,ALLINCL,MET ALL INCLUSION & NO EXCLUSION CRIT.,YES,YES," ",2001,-1
NIDA-CTN-0001,SC,01_023438,9,EDUCYRS,EDUCATION COMPLETED,12,12,12,2001,-1
NIDA-CTN-0001,SC,01_023438,11,EMPLOY30,USUAL EMPLOYMENT PATTERN: PAST 30 DAYS,PART TIME (IRREGULAR DAYWORK),PART TIME (IRREGULAR DAYWORK)," ",2001,-1
NIDA-CTN-0001,SC,01_023438,10,EMPLOY3Y,USUAL EMPLOYMENT PATTERN: PAST 3 YEARS,PART TIME (IRREGULAR DAYWORK),PART TIME (IRREGULAR DAYWORK)," ",2001,-1
NIDA-CTN-0001,SC,01_023438,12,MARITAL,MARITAL STATUS,LEGALLY MARRIED,LEGALLY MARRIED," ",2001,-1
NIDA-CTN-0001,SC,01_023982,13,ALLINCL,MET ALL INCLUSION & NO EXCLUSION CRIT.,YES,YES," ",2001,1
NIDA-CTN-0001,SC,01_023982,9,EDUCYRS,EDUCATION COMPLETED,11,11,11,2001,1
NIDA-CTN-0001,SC,01_023982,11,EMPLOY30,USUAL EMPLOYMENT PATTERN: PAST 30 DAYS,UNEMPLOYED,UNEMPLOYED," ",2001,1
NIDA-CTN-0001,SC,01_023982,10,EMPLOY3Y,USUAL EMPLOYMENT PATTERN: PAST 3 YEARS,UNEMPLOYED,UNEMPLOYED," ",2001,1
NIDA-CTN-0001,SC,01_023982,12,MARITAL,MARITAL STATUS,LEGALLY MARRIED,LEGALLY MARRIED," ",2001,1
NIDA-CTN-0001,SC,01_024957,13,ALLINCL,MET ALL INCLUSION & NO EXCLUSION CRIT.,YES,YES," ",2001,1
NIDA-CTN-0001,SC,01_024957,9,EDUCYRS,EDUCATION COMPLETED,12,12,12,2001,1
NIDA-CTN-0001,SC,01_024957,11,EMPLOY30,USUAL EMPLOYMENT PATTERN: PAST 30 DAYS,PART TIME (REGULAR HOURS),PART TIME (REGULAR HOURS)," ",2001,1
NIDA-CTN-0001,SC,01_024957,10,EMPLOY3Y,USUAL EMPLOYMENT PATTERN: PAST 3 YEARS,UNEMPLOYED,UNEMPLOYED," ",2001,1
NIDA-CTN-0001,SC,01_024957,12,MARITAL,MARITAL STATUS,NEVER MARRIED,NEVER MARRIED," ",2001,1
NIDA-CTN-0001,SC,01_026062,13,ALLINCL,MET ALL INCLUSION & NO EXCLUSION CRIT.,NO,NO," ",2001," "
NIDA-CTN-0001,SC,01_026062,9,EDUCYRS,EDUCATION COMPLETED,14,14,14,2001," "
NIDA-CTN-0001,SC,01_026062,11,EMPLOY30,USUAL EMPLOYMENT PATTERN: PAST 30 DAYS,STUDENT,STUDENT," ",2001," "
NIDA-CTN-0001,SC,01_026062,10,EMPLOY3Y,USUAL EMPLOYMENT PATTERN: PAST 3 YEARS,STUDENT,STUDENT," ",2001," "
NIDA-CTN-0001,SC,01_026062,12,MARITAL,MARITAL STATUS,NEVER MARRIED,NEVER MARRIED," ",2001," "
NIDA-CTN-0001,SC,01_027452,13,ALLINCL,MET ALL INCLUSION & NO EXCLUSION CRIT.,YES,YES," ",2002,-7
NIDA-CTN-0001,SC,01_027452,9,EDUCYRS,EDUCATION COMPLETED,14,14,14,2002,-7
NIDA-CTN-0001,SC,01_027452,11,EMPLOY30,USUAL EMPLOYMENT PATTERN: PAST 30 DAYS,PART TIME (IRREGULAR DAYWORK),PART TIME (IRREGULAR DAYWORK)," ",2002,-7
NIDA-CTN-0001,SC,01_027452,10,EMPLOY3Y,USUAL EMPLOYMENT PATTERN: PAST 3 YEARS,FULL TIME (35+ HRS/WK),FULL TIME (35+ HRS/WK)," ",2002,-7
NIDA-CTN-0001,SC,01_027452,12,MARITAL,MARITAL STATUS,NEVER MARRIED,NEVER MARRIED," ",2002,-7
NIDA-CTN-0001,SC,01_027466,13,ALLINCL,MET ALL INCLUSION & NO EXCLUSION CRIT.,YES,YES," ",2001,-2
NIDA-CTN-0001,SC,01_027466,9,EDUCYRS,EDUCATION COMPLETED,12,12,12,2001,-2
NIDA-CTN-0001,SC,01_027466,11,EMPLOY30,USUAL EMPLOYMENT PATTERN: PAST 30 DAYS,FULL TIME (35+ HRS/WK),FULL TIME (35+ HRS/WK)," ",2001,-2
NIDA-CTN-0001,SC,01_027466,10,EMPLOY3Y,USUAL EMPLOYMENT PATTERN: PAST 3 YEARS,FULL TIME (35+ HRS/WK),FULL TIME (35+ HRS/WK)," ",2001,-2
NIDA-CTN-0001,SC,01_027466,12,MARITAL,MARITAL STATUS,LIVING WITH PARTNER/COHABITATING,LIVING WITH PARTNER/COHABITATING," ",2001,-2
NIDA-CTN-0001,SC,01_027631,13,ALLINCL,MET ALL INCLUSION & NO EXCLUSION CRIT.,YES,YES," ",2001,-1
NIDA-CTN-0001,SC,01_027631,9,EDUCYRS,EDUCATION COMPLETED,14,14,14,2001,-1
NIDA-CTN-0001,SC,01_027631,11,EMPLOY30,USUAL EMPLOYMENT PATTERN: PAST 30 DAYS,UNEMPLOYED,UNEMPLOYED," ",2001,-1
NIDA-CTN-0001,SC,01_027631,10,EMPLOY3Y,USUAL EMPLOYMENT PATTERN: PAST 3 YEARS,FULL TIME (35+ HRS/WK),FULL TIME (35+ HRS/WK)," ",2001,-1
NIDA-CTN-0001,SC,01_027631,12,MARITAL,MARITAL STATUS,DIVORCED,DIVORCED," ",2001,-1
NIDA-CTN-0001,SC,01_028279,13,ALLINCL,MET ALL INCLUSION & NO EXCLUSION CRIT.,NO,NO," ",2001," "
NIDA-CTN-0001,SC,01_028279,9,EDUCYRS,EDUCATION COMPLETED,12,12,12,2001," "
NIDA-CTN-0001,SC,01_028279,11,EMPLOY30,USUAL EMPLOYMENT PATTERN: PAST 30 DAYS,UNEMPLOYED,UNEMPLOYED," ",2001," "
NIDA-CTN-0001,SC,01_028279,10,EMPLOY3Y,USUAL EMPLOYMENT PATTERN: PAST 3 YEARS,UNEMPLOYED,UNEMPLOYED," ",2001," "
NIDA-CTN-0001,SC,01_028279,12,MARITAL,MARITAL STATUS,LEGALLY MARRIED,LEGALLY MARRIED," ",2001," "
NIDA-CTN-0001,SC,01_029678,14,ALLINCL,MET ALL INCLUSION & NO EXCLUSION CRIT.,YES,YES," ",2001,-1
NIDA-CTN-0001,SC,01_029678,10,EDUCYRS,EDUCATION COMPLETED,14,14,14,2001,-1
NIDA-CTN-0001,SC,01_029678,12,EMPLOY30,USUAL EMPLOYMENT PATTERN: PAST 30 DAYS,FULL TIME (35+ HRS/WK),FULL TIME (35+ HRS/WK)," ",2001,-1
NIDA-CTN-0001,SC,01_029678,11,EMPLOY3Y,USUAL EMPLOYMENT PATTERN: PAST 3 YEARS,FULL TIME (35+ HRS/WK),FULL TIME (35+ HRS/WK)," ",2001,-1
NIDA-CTN-0001,SC,01_029678,13,MARITAL,MARITAL STATUS,LEGALLY MARRIED,LEGALLY MARRIED," ",2001,-1
NIDA-CTN-0001,SC,01_030813,14,ALLINCL,MET ALL INCLUSION & NO EXCLUSION CRIT.,NO,NO," ",2002," "
NIDA-CTN-0001,SC,01_030813,10,EDUCYRS,EDUCATION COMPLETED,12,12,12,2002," "
NIDA-CTN-0001,SC,01_030813,12,EMPLOY30,USUAL EMPLOYMENT PATTERN: PAST 30 DAYS,UNEMPLOYED,UNEMPLOYED," ",2002," "
NIDA-CTN-0001,SC,01_030813,11,EMPLOY3Y,USUAL EMPLOYMENT PATTERN: PAST 3 YEARS,FULL TIME (35+ HRS/WK),FULL TIME (35+ HRS/WK)," ",2002," "
NIDA-CTN-0001,SC,01_030813,13,MARITAL,MARITAL STATUS,NEVER MARRIED,NEVER MARRIED," ",2002," "
NIDA-CTN-0001,SC,01_033121,13,ALLINCL,MET ALL INCLUSION & NO EXCLUSION CRIT.,YES,YES," ",2002,-1
NIDA-CTN-0001,SC,01_033121,9,EDUCYRS,EDUCATION COMPLETED,10,10,10,2002,-1
NIDA-CTN-0001,SC,01_033121,11,EMPLOY30,USUAL EMPLOYMENT PATTERN: PAST 30 DAYS,HOMEMAKER,HOMEMAKER," ",2002,-1
NIDA-CTN-0001,SC,01_033121,10,EMPLOY3Y,USUAL EMPLOYMENT PATTERN: PAST 3 YEARS,HOMEMAKER,HOMEMAKER," ",2002,-1
NIDA-CTN-0001,SC,01_033121,12,MARITAL,MARITAL STATUS,LEGALLY MARRIED,LEGALLY MARRIED," ",2002,-1
NIDA-CTN-0001,SC,01_033375,13,ALLINCL,MET ALL INCLUSION & NO EXCLUSION CRIT.,YES,YES," ",2001,1
NIDA-CTN-0001,SC,01_033375,9,EDUCYRS,EDUCATION COMPLETED,14,14,14,2001,1
NIDA-CTN-0001,SC,01_033375,11,EMPLOY30,USUAL EMPLOYMENT PATTERN: PAST 30 DAYS,UNEMPLOYED,UNEMPLOYED," ",2001,1
NIDA-CTN-0001,SC,01_033375,10,EMPLOY3Y,USUAL EMPLOYMENT PATTERN: PAST 3 YEARS,UNEMPLOYED,UNEMPLOYED," ",2001,1
NIDA-CTN-0001,SC,01_033375,12,MARITAL,MARITAL STATUS,SEPARATED,SEPARATED," ",2001,1
NIDA-CTN-0001,SC,01_033479,13,ALLINCL,MET ALL INCLUSION & NO EXCLUSION CRIT.,YES,YES," ",2001,-1
NIDA-CTN-0001,SC,01_033479,9,EDUCYRS,EDUCATION COMPLETED,10,10,10,2001,-1
NIDA-CTN-0001,SC,01_033479,11,EMPLOY30,USUAL EMPLOYMENT PATTERN: PAST 30 DAYS,UNEMPLOYED,UNEMPLOYED," ",2001,-1
NIDA-CTN-0001,SC,01_033479,10,EMPLOY3Y,USUAL EMPLOYMENT PATTERN: PAST 3 YEARS,FULL TIME (35+ HRS/WK),FULL TIME (35+ HRS/WK)," ",2001,-1
NIDA-CTN-0001,SC,01_033479,12,MARITAL,MARITAL STATUS,NEVER MARRIED,NEVER MARRIED," ",2001,-1
NIDA-CTN-0001,SC,01_033941,14,ALLINCL,MET ALL INCLUSION & NO EXCLUSION CRIT.,YES,YES," ",2002,1
NIDA-CTN-0001,SC,01_033941,10,EDUCYRS,EDUCATION COMPLETED,11,11,11,2002,1
NIDA-CTN-0001,SC,01_033941,12,EMPLOY30,USUAL EMPLOYMENT PATTERN: PAST 30 DAYS,UNEMPLOYED,UNEMPLOYED," ",2002,1
NIDA-CTN-0001,SC,01_033941,11,EMPLOY3Y,USUAL EMPLOYMENT PATTERN: PAST 3 YEARS,FULL TIME (35+ HRS/WK),FULL TIME (35+ HRS/WK)," ",2002,1
NIDA-CTN-0001,SC,01_033941,13,MARITAL,MARITAL STATUS,NEVER MARRIED,NEVER MARRIED," ",2002,1
NIDA-CTN-0001,SC,01_034039,13,ALLINCL,MET ALL INCLUSION & NO EXCLUSION CRIT.,YES,YES," ",2001,-1
NIDA-CTN-0001,SC,01_034039,9,EDUCYRS,EDUCATION COMPLETED,13,13,13,2001,-1
NIDA-CTN-0001,SC,01_034039,11,EMPLOY30,USUAL EMPLOYMENT PATTERN: PAST 30 DAYS,PART TIME (IRREGULAR DAYWORK),PART TIME (IRREGULAR DAYWORK)," ",2001,-1
NIDA-CTN-0001,SC,01_034039,10,EMPLOY3Y,USUAL EMPLOYMENT PATTERN: PAST 3 YEARS,PART TIME (IRREGULAR DAYWORK),PART TIME (IRREGULAR DAYWORK)," ",2001,-1
NIDA-CTN-0001,SC,01_034039,12,MARITAL,MARITAL STATUS,NEVER MARRIED,NEVER MARRIED," ",2001,-1
NIDA-CTN-0001,SC,01_034960,14,ALLINCL,MET ALL INCLUSION & NO EXCLUSION CRIT.,YES,YES," ",2001,-3
NIDA-CTN-0001,SC,01_034960,10,EDUCYRS,EDUCATION COMPLETED,12,12,12,2001,-3
NIDA-CTN-0001,SC,01_034960,12,EMPLOY30,USUAL EMPLOYMENT PATTERN: PAST 30 DAYS,UNEMPLOYED,UNEMPLOYED," ",2001,-3
NIDA-CTN-0001,SC,01_034960,11,EMPLOY3Y,USUAL EMPLOYMENT PATTERN: PAST 3 YEARS,PART TIME (IRREGULAR DAYWORK),PART TIME (IRREGULAR DAYWORK)," ",2001,-3
NIDA-CTN-0001,SC,01_034960,13,MARITAL,MARITAL STATUS,LIVING WITH PARTNER/COHABITATING,LIVING WITH PARTNER/COHABITATING," ",2001,-3
NIDA-CTN-0001,SC,01_035136,13,ALLINCL,MET ALL INCLUSION & NO EXCLUSION CRIT.,YES,YES," ",2001,-5
NIDA-CTN-0001,SC,01_035136,9,EDUCYRS,EDUCATION COMPLETED,12,12,12,2001,-5
NIDA-CTN-0001,SC,01_035136,11,EMPLOY30,USUAL EMPLOYMENT PATTERN: PAST 30 DAYS,FULL TIME (35+ HRS/WK),FULL TIME (35+ HRS/WK)," ",2001,-5
NIDA-CTN-0001,SC,01_035136,10,EMPLOY3Y,USUAL EMPLOYMENT PATTERN: PAST 3 YEARS,UNEMPLOYED,UNEMPLOYED," ",2001,-5
NIDA-CTN-0001,SC,01_035136,12,MARITAL,MARITAL STATUS,NEVER MARRIED,NEVER MARRIED," ",2001,-5
NIDA-CTN-0001,SC,01_036285,13,ALLINCL,MET ALL INCLUSION & NO EXCLUSION CRIT.,YES,YES," ",2002,1
NIDA-CTN-0001,SC,01_036285,9,EDUCYRS,EDUCATION COMPLETED,12,12,12,2002,1
NIDA-CTN-0001,SC,01_036285,11,EMPLOY30,USUAL EMPLOYMENT PATTERN: PAST 30 DAYS,PART TIME (REGULAR HOURS),PART TIME (REGULAR HOURS)," ",2002,1
NIDA-CTN-0001,SC,01_036285,10,EMPLOY3Y,USUAL EMPLOYMENT PATTERN: PAST 3 YEARS,FULL TIME (35+ HRS/WK),FULL TIME (35+ HRS/WK)," ",2002,1
NIDA-CTN-0001,SC,01_036285,12,MARITAL,MARITAL STATUS,LEGALLY MARRIED,LEGALLY MARRIED," ",2002,1
NIDA-CTN-0001,SC,01_037378,13,ALLINCL,MET ALL INCLUSION & NO EXCLUSION CRIT.,YES,YES," ",2001,1
NIDA-CTN-0001,SC,01_037378,9,EDUCYRS,EDUCATION COMPLETED,12,12,12,2001,1
NIDA-CTN-0001,SC,01_037378,11,EMPLOY30,USUAL EMPLOYMENT PATTERN: PAST 30 DAYS,UNEMPLOYED,UNEMPLOYED," ",2001,1
NIDA-CTN-0001,SC,01_037378,10,EMPLOY3Y,USUAL EMPLOYMENT PATTERN: PAST 3 YEARS,STUDENT,STUDENT," ",2001,1
NIDA-CTN-0001,SC,01_037378,12,MARITAL,MARITAL STATUS,NEVER MARRIED,NEVER MARRIED," ",2001,1
NIDA-CTN-0001,SC,01_037769,13,ALLINCL,MET ALL INCLUSION & NO EXCLUSION CRIT.,YES,YES," ",2002,1
NIDA-CTN-0001,SC,01_037769,9,EDUCYRS,EDUCATION COMPLETED,14,14,14,2002,1
NIDA-CTN-0001,SC,01_037769,11,EMPLOY30,USUAL EMPLOYMENT PATTERN: PAST 30 DAYS,UNEMPLOYED,UNEMPLOYED," ",2002,1
NIDA-CTN-0001,SC,01_037769,10,EMPLOY3Y,USUAL EMPLOYMENT PATTERN: PAST 3 YEARS,PART TIME (REGULAR HOURS),PART TIME (REGULAR HOURS)," ",2002,1
NIDA-CTN-0001,SC,01_037769,12,MARITAL,MARITAL STATUS,NEVER MARRIED,NEVER MARRIED," ",2002,1
NIDA-CTN-0001,SC,01_037973,13,ALLINCL,MET ALL INCLUSION & NO EXCLUSION CRIT.,YES,YES," ",2002,-1
NIDA-CTN-0001,SC,01_037973,9,EDUCYRS,EDUCATION COMPLETED,12,12,12,2002,-1
NIDA-CTN-0001,SC,01_037973,11,EMPLOY30,USUAL EMPLOYMENT PATTERN: PAST 30 DAYS,UNEMPLOYED,UNEMPLOYED," ",2002,-1
NIDA-CTN-0001,SC,01_037973,10,EMPLOY3Y,USUAL EMPLOYMENT PATTERN: PAST 3 YEARS,FULL TIME (35+ HRS/WK),FULL TIME (35+ HRS/WK)," ",2002,-1
NIDA-CTN-0001,SC,01_037973,12,MARITAL,MARITAL STATUS,NEVER MARRIED,NEVER MARRIED," ",2002,-1
NIDA-CTN-0001,SC,01_038386,13,ALLINCL,MET ALL INCLUSION & NO EXCLUSION CRIT.,YES,YES," ",2001,1
NIDA-CTN-0001,SC,01_038386,9,EDUCYRS,EDUCATION COMPLETED,12,12,12,2001,1
NIDA-CTN-0001,SC,01_038386,11,EMPLOY30,USUAL EMPLOYMENT PATTERN: PAST 30 DAYS,UNEMPLOYED,UNEMPLOYED," ",2001,1
NIDA-CTN-0001,SC,01_038386,10,EMPLOY3Y,USUAL EMPLOYMENT PATTERN: PAST 3 YEARS,FULL TIME (35+ HRS/WK),FULL TIME (35+ HRS/WK)," ",2001,1
NIDA-CTN-0001,SC,01_038386,12,MARITAL,MARITAL STATUS,DIVORCED,DIVORCED," ",2001,1
NIDA-CTN-0001,SC,01_038392,10,ALLINCL,MET ALL INCLUSION & NO EXCLUSION CRIT.,NO,NO," ",2002," "
NIDA-CTN-0001,SC,01_038392,9,EDUCYRS,EDUCATION COMPLETED,12,12,12,2002," "
NIDA-CTN-0001,SC,01_038465,13,ALLINCL,MET ALL INCLUSION & NO EXCLUSION CRIT.,YES,YES," ",2002,1
NIDA-CTN-0001,SC,01_038465,9,EDUCYRS,EDUCATION COMPLETED,14,14,14,2002,1
NIDA-CTN-0001,SC,01_038465,11,EMPLOY30,USUAL EMPLOYMENT PATTERN: PAST 30 DAYS,UNEMPLOYED,UNEMPLOYED," ",2002,1
NIDA-CTN-0001,SC,01_038465,10,EMPLOY3Y,USUAL EMPLOYMENT PATTERN: PAST 3 YEARS,PART TIME (REGULAR HOURS),PART TIME (REGULAR HOURS)," ",2002,1
NIDA-CTN-0001,SC,01_038465,12,MARITAL,MARITAL STATUS,DIVORCED,DIVORCED," ",2002,1
NIDA-CTN-0001,SC,01_038661,13,ALLINCL,MET ALL INCLUSION & NO EXCLUSION CRIT.,YES,YES," ",2002,-3
NIDA-CTN-0001,SC,01_038661,9,EDUCYRS,EDUCATION COMPLETED,14,14,14,2002,-3
NIDA-CTN-0001,SC,01_038661,11,EMPLOY30,USUAL EMPLOYMENT PATTERN: PAST 30 DAYS,UNEMPLOYED,UNEMPLOYED," ",2002,-3
NIDA-CTN-0001,SC,01_038661,10,EMPLOY3Y,USUAL EMPLOYMENT PATTERN: PAST 3 YEARS,PART TIME (IRREGULAR DAYWORK),PART TIME (IRREGULAR DAYWORK)," ",2002,-3
NIDA-CTN-0001,SC,01_038661,12,MARITAL,MARITAL STATUS,DIVORCED,DIVORCED," ",2002,-3
NIDA-CTN-0001,SC,01_038734,13,ALLINCL,MET ALL INCLUSION & NO EXCLUSION CRIT.,NO,NO," ",2001," "
NIDA-CTN-0001,SC,01_038734,9,EDUCYRS,EDUCATION COMPLETED,9,9,9,2001," "
NIDA-CTN-0001,SC,01_038734,11,EMPLOY30,USUAL EMPLOYMENT PATTERN: PAST 30 DAYS,FULL TIME (35+ HRS/WK),FULL TIME (35+ HRS/WK)," ",2001," "
NIDA-CTN-0001,SC,01_038734,10,EMPLOY3Y,USUAL EMPLOYMENT PATTERN: PAST 3 YEARS,FULL TIME (35+ HRS/WK),FULL TIME (35+ HRS/WK)," ",2001," "
NIDA-CTN-0001,SC,01_038734,12,MARITAL,MARITAL STATUS,DIVORCED,DIVORCED," ",2001," "
NIDA-CTN-0001,SC,01_041193,14,ALLINCL,MET ALL INCLUSION & NO EXCLUSION CRIT.,YES,YES," ",2001,-1
NIDA-CTN-0001,SC,01_041193,10,EDUCYRS,EDUCATION COMPLETED,12,12,12,2001,-1
NIDA-CTN-0001,SC,01_041193,12,EMPLOY30,USUAL EMPLOYMENT PATTERN: PAST 30 DAYS,FULL TIME (35+ HRS/WK),FULL TIME (35+ HRS/WK)," ",2001,-1
NIDA-CTN-0001,SC,01_041193,11,EMPLOY3Y,USUAL EMPLOYMENT PATTERN: PAST 3 YEARS,FULL TIME (35+ HRS/WK),FULL TIME (35+ HRS/WK)," ",2001,-1
NIDA-CTN-0001,SC,01_041193,13,MARITAL,MARITAL STATUS,NEVER MARRIED,NEVER MARRIED," ",2001,-1
NIDA-CTN-0001,SC,01_043642,14,ALLINCL,MET ALL INCLUSION & NO EXCLUSION CRIT.,YES,YES," ",2002,-3
NIDA-CTN-0001,SC,01_043642,10,EDUCYRS,EDUCATION COMPLETED,12,12,12,2002,-3
NIDA-CTN-0001,SC,01_043642,12,EMPLOY30,USUAL EMPLOYMENT PATTERN: PAST 30 DAYS,FULL TIME (35+ HRS/WK),FULL TIME (35+ HRS/WK)," ",2002,-3
NIDA-CTN-0001,SC,01_043642,11,EMPLOY3Y,USUAL EMPLOYMENT PATTERN: PAST 3 YEARS,FULL TIME (35+ HRS/WK),FULL TIME (35+ HRS/WK)," ",2002,-3
NIDA-CTN-0001,SC,01_043642,13,MARITAL,MARITAL STATUS,SEPARATED,SEPARATED," ",2002,-3
NIDA-CTN-0001,SC,01_044124,14,ALLINCL,MET ALL INCLUSION & NO EXCLUSION CRIT.,YES,YES," ",2001,-1
NIDA-CTN-0001,SC,01_044124,10,EDUCYRS,EDUCATION COMPLETED,11,11,11,2001,-1
NIDA-CTN-0001,SC,01_044124,12,EMPLOY30,USUAL EMPLOYMENT PATTERN: PAST 30 DAYS,FULL TIME (35+ HRS/WK),FULL TIME (35+ HRS/WK)," ",2001,-1
NIDA-CTN-0001,SC,01_044124,11,EMPLOY3Y,USUAL EMPLOYMENT PATTERN: PAST 3 YEARS,FULL TIME (35+ HRS/WK),FULL TIME (35+ HRS/WK)," ",2001,-1
NIDA-CTN-0001,SC,01_044124,13,MARITAL,MARITAL STATUS,LEGALLY MARRIED,LEGALLY MARRIED," ",2001,-1
NIDA-CTN-0001,SC,01_044573,13,ALLINCL,MET ALL INCLUSION & NO EXCLUSION CRIT.,YES,YES," ",2001,-2
NIDA-CTN-0001,SC,01_044573,9,EDUCYRS,EDUCATION COMPLETED,18,18,18,2001,-2
NIDA-CTN-0001,SC,01_044573,11,EMPLOY30,USUAL EMPLOYMENT PATTERN: PAST 30 DAYS,UNEMPLOYED,UNEMPLOYED," ",2001,-2
NIDA-CTN-0001,SC,01_044573,10,EMPLOY3Y,USUAL EMPLOYMENT PATTERN: PAST 3 YEARS,PART TIME (IRREGULAR DAYWORK),PART TIME (IRREGULAR DAYWORK)," ",2001,-2
NIDA-CTN-0001,SC,01_044573,12,MARITAL,MARITAL STATUS,NEVER MARRIED,NEVER MARRIED," ",2001,-2
NIDA-CTN-0001,SC,01_045322,13,ALLINCL,MET ALL INCLUSION & NO EXCLUSION CRIT.,YES,YES," ",2001,-2
NIDA-CTN-0001,SC,01_045322,9,EDUCYRS,EDUCATION COMPLETED,14,14,14,2001,-2
NIDA-CTN-0001,SC,01_045322,11,EMPLOY30,USUAL EMPLOYMENT PATTERN: PAST 30 DAYS,FULL TIME (35+ HRS/WK),FULL TIME (35+ HRS/WK)," ",2001,-2
NIDA-CTN-0001,SC,01_045322,10,EMPLOY3Y,USUAL EMPLOYMENT PATTERN: PAST 3 YEARS,FULL TIME (35+ HRS/WK),FULL TIME (35+ HRS/WK)," ",2001,-2
NIDA-CTN-0001,SC,01_045322,12,MARITAL,MARITAL STATUS,WIDOWED,WIDOWED," ",2001,-2
NIDA-CTN-0001,SC,01_045453,13,ALLINCL,MET ALL INCLUSION & NO EXCLUSION CRIT.,NO,NO," ",2002," "
NIDA-CTN-0001,SC,01_045453,9,EDUCYRS,EDUCATION COMPLETED,12,12,12,2002," "
NIDA-CTN-0001,SC,01_045453,11,EMPLOY30,USUAL EMPLOYMENT PATTERN: PAST 30 DAYS,FULL TIME (35+ HRS/WK),FULL TIME (35+ HRS/WK)," ",2002," "
NIDA-CTN-0001,SC,01_045453,10,EMPLOY3Y,USUAL EMPLOYMENT PATTERN: PAST 3 YEARS,FULL TIME (35+ HRS/WK),FULL TIME (35+ HRS/WK)," ",2002," "
NIDA-CTN-0001,SC,01_045453,12,MARITAL,MARITAL STATUS,NEVER MARRIED,NEVER MARRIED," ",2002," "
NIDA-CTN-0001,SC,01_045827,13,ALLINCL,MET ALL INCLUSION & NO EXCLUSION CRIT.,NO,NO," ",2001," "
NIDA-CTN-0001,SC,01_045827,9,EDUCYRS,EDUCATION COMPLETED,13,13,13,2001," "
NIDA-CTN-0001,SC,01_045827,11,EMPLOY30,USUAL EMPLOYMENT PATTERN: PAST 30 DAYS,FULL TIME (35+ HRS/WK),FULL TIME (35+ HRS/WK)," ",2001," "
NIDA-CTN-0001,SC,01_045827,10,EMPLOY3Y,USUAL EMPLOYMENT PATTERN: PAST 3 YEARS,FULL TIME (35+ HRS/WK),FULL TIME (35+ HRS/WK)," ",2001," "
NIDA-CTN-0001,SC,01_045827,12,MARITAL,MARITAL STATUS,LEGALLY MARRIED,LEGALLY MARRIED," ",2001," "
NIDA-CTN-0001,SC,01_046242,13,ALLINCL,MET ALL INCLUSION & NO EXCLUSION CRIT.,YES,YES," ",2002,-1
NIDA-CTN-0001,SC,01_046242,9,EDUCYRS,EDUCATION COMPLETED,12,12,12,2002,-1
NIDA-CTN-0001,SC,01_046242,11,EMPLOY30,USUAL EMPLOYMENT PATTERN: PAST 30 DAYS,PART TIME (IRREGULAR DAYWORK),PART TIME (IRREGULAR DAYWORK)," ",2002,-1
NIDA-CTN-0001,SC,01_046242,10,EMPLOY3Y,USUAL EMPLOYMENT PATTERN: PAST 3 YEARS,PART TIME (IRREGULAR DAYWORK),PART TIME (IRREGULAR DAYWORK)," ",2002,-1
NIDA-CTN-0001,SC,01_046242,12,MARITAL,MARITAL STATUS,LEGALLY MARRIED,LEGALLY MARRIED," ",2002,-1
NIDA-CTN-0001,SC,01_046618,13,ALLINCL,MET ALL INCLUSION & NO EXCLUSION CRIT.,YES,YES," ",2001,-2
NIDA-CTN-0001,SC,01_046618,9,EDUCYRS,EDUCATION COMPLETED,16,16,16,2001,-2
NIDA-CTN-0001,SC,01_046618,11,EMPLOY30,USUAL EMPLOYMENT PATTERN: PAST 30 DAYS,UNEMPLOYED,UNEMPLOYED," ",2001,-2
NIDA-CTN-0001,SC,01_046618,10,EMPLOY3Y,USUAL EMPLOYMENT PATTERN: PAST 3 YEARS,FULL TIME (35+ HRS/WK),FULL TIME (35+ HRS/WK)," ",2001,-2
NIDA-CTN-0001,SC,01_046618,12,MARITAL,MARITAL STATUS,DIVORCED,DIVORCED," ",2001,-2
NIDA-CTN-0001,SC,01_046633,14,ALLINCL,MET ALL INCLUSION & NO EXCLUSION CRIT.,YES,YES," ",2001,-1
NIDA-CTN-0001,SC,01_046633,10,EDUCYRS,EDUCATION COMPLETED,13,13,13,2001,-1
NIDA-CTN-0001,SC,01_046633,12,EMPLOY30,USUAL EMPLOYMENT PATTERN: PAST 30 DAYS,UNEMPLOYED,UNEMPLOYED," ",2001,-1
NIDA-CTN-0001,SC,01_046633,11,EMPLOY3Y,USUAL EMPLOYMENT PATTERN: PAST 3 YEARS,UNEMPLOYED,UNEMPLOYED," ",2001,-1
NIDA-CTN-0001,SC,01_046633,13,MARITAL,MARITAL STATUS,LEGALLY MARRIED,LEGALLY MARRIED," ",2001,-1
NIDA-CTN-0001,SC,01_047430,14,ALLINCL,MET ALL INCLUSION & NO EXCLUSION CRIT.,YES,YES," ",2001,-1
NIDA-CTN-0001,SC,01_047430,10,EDUCYRS,EDUCATION COMPLETED,12,12,12,2001,-1
NIDA-CTN-0001,SC,01_047430,12,EMPLOY30,USUAL EMPLOYMENT PATTERN: PAST 30 DAYS,FULL TIME (35+ HRS/WK),FULL TIME (35+ HRS/WK)," ",2001,-1
NIDA-CTN-0001,SC,01_047430,11,EMPLOY3Y,USUAL EMPLOYMENT PATTERN: PAST 3 YEARS,FULL TIME (35+ HRS/WK),FULL TIME (35+ HRS/WK)," ",2001,-1
NIDA-CTN-0001,SC,01_047430,13,MARITAL,MARITAL STATUS,LEGALLY MARRIED,LEGALLY MARRIED," ",2001,-1
NIDA-CTN-0001,SC,01_047434,14,ALLINCL,MET ALL INCLUSION & NO EXCLUSION CRIT.,YES,YES," ",2001,1
NIDA-CTN-0001,SC,01_047434,10,EDUCYRS,EDUCATION COMPLETED,14,14,14,2001,1
NIDA-CTN-0001,SC,01_047434,12,EMPLOY30,USUAL EMPLOYMENT PATTERN: PAST 30 DAYS,UNEMPLOYED,UNEMPLOYED," ",2001,1
NIDA-CTN-0001,SC,01_047434,11,EMPLOY3Y,USUAL EMPLOYMENT PATTERN: PAST 3 YEARS,FULL TIME (35+ HRS/WK),FULL TIME (35+ HRS/WK)," ",2001,1
NIDA-CTN-0001,SC,01_047434,13,MARITAL,MARITAL STATUS,NEVER MARRIED,NEVER MARRIED," ",2001,1
NIDA-CTN-0001,SC,01_047446,13,ALLINCL,MET ALL INCLUSION & NO EXCLUSION CRIT.,YES,YES," ",2001,1
NIDA-CTN-0001,SC,01_047446,9,EDUCYRS,EDUCATION COMPLETED,16,16,16,2001,1
NIDA-CTN-0001,SC,01_047446,11,EMPLOY30,USUAL EMPLOYMENT PATTERN: PAST 30 DAYS,IN CONTROLLED ENVIRONMENT,IN CONTROLLED ENVIRONMENT," ",2001,1
NIDA-CTN-0001,SC,01_047446,10,EMPLOY3Y,USUAL EMPLOYMENT PATTERN: PAST 3 YEARS,STUDENT,STUDENT," ",2001,1
NIDA-CTN-0001,SC,01_047446,12,MARITAL,MARITAL STATUS,NEVER MARRIED,NEVER MARRIED," ",2001,1
NIDA-CTN-0001,SC,01_048738,13,ALLINCL,MET ALL INCLUSION & NO EXCLUSION CRIT.,YES,YES," ",2001,1
NIDA-CTN-0001,SC,01_048738,9,EDUCYRS,EDUCATION COMPLETED,14,14,14,2001,1
NIDA-CTN-0001,SC,01_048738,11,EMPLOY30,USUAL EMPLOYMENT PATTERN: PAST 30 DAYS,UNEMPLOYED,UNEMPLOYED," ",2001,1
NIDA-CTN-0001,SC,01_048738,10,EMPLOY3Y,USUAL EMPLOYMENT PATTERN: PAST 3 YEARS,FULL TIME (35+ HRS/WK),FULL TIME (35+ HRS/WK)," ",2001,1
NIDA-CTN-0001,SC,01_048738,12,MARITAL,MARITAL STATUS,NEVER MARRIED,NEVER MARRIED," ",2001,1
NIDA-CTN-0001,SC,01_049581,14,ALLINCL,MET ALL INCLUSION & NO EXCLUSION CRIT.,YES,YES," ",2001,-1
NIDA-CTN-0001,SC,01_049581,10,EDUCYRS,EDUCATION COMPLETED,8,8,8,2001,-1
NIDA-CTN-0001,SC,01_049581,12,EMPLOY30,USUAL EMPLOYMENT PATTERN: PAST 30 DAYS,UNEMPLOYED,UNEMPLOYED," ",2001,-1
NIDA-CTN-0001,SC,01_049581,11,EMPLOY3Y,USUAL EMPLOYMENT PATTERN: PAST 3 YEARS,FULL TIME (35+ HRS/WK),FULL TIME (35+ HRS/WK)," ",2001,-1
NIDA-CTN-0001,SC,01_049581,13,MARITAL,MARITAL STATUS,DIVORCED,DIVORCED," ",2001,-1
NIDA-CTN-0001,SC,01_049798,13,ALLINCL,MET ALL INCLUSION & NO EXCLUSION CRIT.,YES,YES," ",2002,1
NIDA-CTN-0001,SC,01_049798,9,EDUCYRS,EDUCATION COMPLETED,20,20,20,2002,1
NIDA-CTN-0001,SC,01_049798,11,EMPLOY30,USUAL EMPLOYMENT PATTERN: PAST 30 DAYS,PART TIME (IRREGULAR DAYWORK),PART TIME (IRREGULAR DAYWORK)," ",2002,1
NIDA-CTN-0001,SC,01_049798,10,EMPLOY3Y,USUAL EMPLOYMENT PATTERN: PAST 3 YEARS,PART TIME (IRREGULAR DAYWORK),PART TIME (IRREGULAR DAYWORK)," ",2002,1
NIDA-CTN-0001,SC,01_049798,12,MARITAL,MARITAL STATUS,LEGALLY MARRIED,LEGALLY MARRIED," ",2002,1
NIDA-CTN-0001,SC,01_050019,13,ALLINCL,MET ALL INCLUSION & NO EXCLUSION CRIT.,YES,YES," ",2002,1
NIDA-CTN-0001,SC,01_050019,9,EDUCYRS,EDUCATION COMPLETED,16,16,16,2002,1
NIDA-CTN-0001,SC,01_050019,11,EMPLOY30,USUAL EMPLOYMENT PATTERN: PAST 30 DAYS,UNEMPLOYED,UNEMPLOYED," ",2002,1
NIDA-CTN-0001,SC,01_050019,10,EMPLOY3Y,USUAL EMPLOYMENT PATTERN: PAST 3 YEARS,FULL TIME (35+ HRS/WK),FULL TIME (35+ HRS/WK)," ",2002,1
NIDA-CTN-0001,SC,01_050019,12,MARITAL,MARITAL STATUS,NEVER MARRIED,NEVER MARRIED," ",2002,1
NIDA-CTN-0001,SC,01_050242,13,ALLINCL,MET ALL INCLUSION & NO EXCLUSION CRIT.,NO,NO," ",2002," "
NIDA-CTN-0001,SC,01_050242,9,EDUCYRS,EDUCATION COMPLETED,12,12,12,2002," "
NIDA-CTN-0001,SC,01_050242,11,EMPLOY30,USUAL EMPLOYMENT PATTERN: PAST 30 DAYS,UNEMPLOYED,UNEMPLOYED," ",2002," "
NIDA-CTN-0001,SC,01_050242,10,EMPLOY3Y,USUAL EMPLOYMENT PATTERN: PAST 3 YEARS,FULL TIME (35+ HRS/WK),FULL TIME (35+ HRS/WK)," ",2002," "
NIDA-CTN-0001,SC,01_050242,12,MARITAL,MARITAL STATUS,NEVER MARRIED,NEVER MARRIED," ",2002," "
NIDA-CTN-0001,SC,01_050792,13,ALLINCL,MET ALL INCLUSION & NO EXCLUSION CRIT.,YES,YES," ",2001,-3
NIDA-CTN-0001,SC,01_050792,9,EDUCYRS,EDUCATION COMPLETED,12,12,12,2001,-3
NIDA-CTN-0001,SC,01_050792,11,EMPLOY30,USUAL EMPLOYMENT PATTERN: PAST 30 DAYS,FULL TIME (35+ HRS/WK),FULL TIME (35+ HRS/WK)," ",2001,-3
NIDA-CTN-0001,SC,01_050792,10,EMPLOY3Y,USUAL EMPLOYMENT PATTERN: PAST 3 YEARS,FULL TIME (35+ HRS/WK),FULL TIME (35+ HRS/WK)," ",2001,-3
NIDA-CTN-0001,SC,01_050792,12,MARITAL,MARITAL STATUS,NEVER MARRIED,NEVER MARRIED," ",2001,-3
NIDA-CTN-0001,SC,01_052001,13,ALLINCL,MET ALL INCLUSION & NO EXCLUSION CRIT.,NO,NO," ",2001," "
NIDA-CTN-0001,SC,01_052001,9,EDUCYRS,EDUCATION COMPLETED,11,11,11,2001," "
NIDA-CTN-0001,SC,01_052001,11,EMPLOY30,USUAL EMPLOYMENT PATTERN: PAST 30 DAYS,UNEMPLOYED,UNEMPLOYED," ",2001," "
NIDA-CTN-0001,SC,01_052001,10,EMPLOY3Y,USUAL EMPLOYMENT PATTERN: PAST 3 YEARS,PART TIME (IRREGULAR DAYWORK),PART TIME (IRREGULAR DAYWORK)," ",2001," "
NIDA-CTN-0001,SC,01_052001,12,MARITAL,MARITAL STATUS,NEVER MARRIED,NEVER MARRIED," ",2001," "
NIDA-CTN-0001,SC,01_053466,13,ALLINCL,MET ALL INCLUSION & NO EXCLUSION CRIT.,YES,YES," ",2001,1
NIDA-CTN-0001,SC,01_053466,9,EDUCYRS,EDUCATION COMPLETED,14,14,14,2001,1
NIDA-CTN-0001,SC,01_053466,11,EMPLOY30,USUAL EMPLOYMENT PATTERN: PAST 30 DAYS,FULL TIME (35+ HRS/WK),FULL TIME (35+ HRS/WK)," ",2001,1
NIDA-CTN-0001,SC,01_053466,10,EMPLOY3Y,USUAL EMPLOYMENT PATTERN: PAST 3 YEARS,FULL TIME (35+ HRS/WK),FULL TIME (35+ HRS/WK)," ",2001,1
NIDA-CTN-0001,SC,01_053466,12,MARITAL,MARITAL STATUS,SEPARATED,SEPARATED," ",2001,1
NIDA-CTN-0001,SC,01_055880,13,ALLINCL,MET ALL INCLUSION & NO EXCLUSION CRIT.,YES,YES," ",2001,-5
NIDA-CTN-0001,SC,01_055880,9,EDUCYRS,EDUCATION COMPLETED,12,12,12,2001,-5
NIDA-CTN-0001,SC,01_055880,11,EMPLOY30,USUAL EMPLOYMENT PATTERN: PAST 30 DAYS,UNEMPLOYED,UNEMPLOYED," ",2001,-5
NIDA-CTN-0001,SC,01_055880,10,EMPLOY3Y,USUAL EMPLOYMENT PATTERN: PAST 3 YEARS,PART TIME (REGULAR HOURS),PART TIME (REGULAR HOURS)," ",2001,-5
NIDA-CTN-0001,SC,01_055880,12,MARITAL,MARITAL STATUS,NEVER MARRIED,NEVER MARRIED," ",2001,-5
NIDA-CTN-0001,SC,01_055899,13,ALLINCL,MET ALL INCLUSION & NO EXCLUSION CRIT.,YES,YES," ",2002,-1
NIDA-CTN-0001,SC,01_055899,9,EDUCYRS,EDUCATION COMPLETED,12,12,12,2002,-1
NIDA-CTN-0001,SC,01_055899,11,EMPLOY30,USUAL EMPLOYMENT PATTERN: PAST 30 DAYS,UNEMPLOYED,UNEMPLOYED," ",2002,-1
NIDA-CTN-0001,SC,01_055899,10,EMPLOY3Y,USUAL EMPLOYMENT PATTERN: PAST 3 YEARS,FULL TIME (35+ HRS/WK),FULL TIME (35+ HRS/WK)," ",2002,-1
NIDA-CTN-0001,SC,01_055899,12,MARITAL,MARITAL STATUS,LIVING WITH PARTNER/COHABITATING,LIVING WITH PARTNER/COHABITATING," ",2002,-1
NIDA-CTN-0001,SC,01_056993,13,ALLINCL,MET ALL INCLUSION & NO EXCLUSION CRIT.,YES,YES," ",2001,1
NIDA-CTN-0001,SC,01_056993,9,EDUCYRS,EDUCATION COMPLETED,11,11,11,2001,1
NIDA-CTN-0001,SC,01_056993,11,EMPLOY30,USUAL EMPLOYMENT PATTERN: PAST 30 DAYS,PART TIME (IRREGULAR DAYWORK),PART TIME (IRREGULAR DAYWORK)," ",2001,1
NIDA-CTN-0001,SC,01_056993,10,EMPLOY3Y,USUAL EMPLOYMENT PATTERN: PAST 3 YEARS,PART TIME (REGULAR HOURS),PART TIME (REGULAR HOURS)," ",2001,1
NIDA-CTN-0001,SC,01_056993,12,MARITAL,MARITAL STATUS,LIVING WITH PARTNER/COHABITATING,LIVING WITH PARTNER/COHABITATING," ",2001,1
NIDA-CTN-0001,SC,01_057109,13,ALLINCL,MET ALL INCLUSION & NO EXCLUSION CRIT.,YES,YES," ",2001,-3
NIDA-CTN-0001,SC,01_057109,9,EDUCYRS,EDUCATION COMPLETED,13,13,13,2001,-3
NIDA-CTN-0001,SC,01_057109,11,EMPLOY30,USUAL EMPLOYMENT PATTERN: PAST 30 DAYS,FULL TIME (35+ HRS/WK),FULL TIME (35+ HRS/WK)," ",2001,-3
NIDA-CTN-0001,SC,01_057109,10,EMPLOY3Y,USUAL EMPLOYMENT PATTERN: PAST 3 YEARS,FULL TIME (35+ HRS/WK),FULL TIME (35+ HRS/WK)," ",2001,-3
NIDA-CTN-0001,SC,01_057109,12,MARITAL,MARITAL STATUS,LEGALLY MARRIED,LEGALLY MARRIED," ",2001,-3
NIDA-CTN-0001,SC,01_058191,13,ALLINCL,MET ALL INCLUSION & NO EXCLUSION CRIT.,YES,YES," ",2001,1
NIDA-CTN-0001,SC,01_058191,9,EDUCYRS,EDUCATION COMPLETED,14,14,14,2001,1
NIDA-CTN-0001,SC,01_058191,11,EMPLOY30,USUAL EMPLOYMENT PATTERN: PAST 30 DAYS,UNEMPLOYED,UNEMPLOYED," ",2001,1
NIDA-CTN-0001,SC,01_058191,10,EMPLOY3Y,USUAL EMPLOYMENT PATTERN: PAST 3 YEARS,HOMEMAKER,HOMEMAKER," ",2001,1
NIDA-CTN-0001,SC,01_058191,12,MARITAL,MARITAL STATUS,NEVER MARRIED,NEVER MARRIED," ",2001,1
NIDA-CTN-0001,SC,01_058918,14,ALLINCL,MET ALL INCLUSION & NO EXCLUSION CRIT.,YES,YES," ",2002,1
NIDA-CTN-0001,SC,01_058918,10,EDUCYRS,EDUCATION COMPLETED,12,12,12,2002,1
NIDA-CTN-0001,SC,01_058918,12,EMPLOY30,USUAL EMPLOYMENT PATTERN: PAST 30 DAYS,UNEMPLOYED,UNEMPLOYED," ",2002,1
NIDA-CTN-0001,SC,01_058918,11,EMPLOY3Y,USUAL EMPLOYMENT PATTERN: PAST 3 YEARS,FULL TIME (35+ HRS/WK),FULL TIME (35+ HRS/WK)," ",2002,1
NIDA-CTN-0001,SC,01_058918,13,MARITAL,MARITAL STATUS,LEGALLY MARRIED,LEGALLY MARRIED," ",2002,1
NIDA-CTN-0001,SC,01_058930,2,ALLINCL,MET ALL INCLUSION & NO EXCLUSION CRIT.,NO,NO," ",2002," "
NIDA-CTN-0001,SC,01_059208,13,ALLINCL,MET ALL INCLUSION & NO EXCLUSION CRIT.,YES,YES," ",2001,-1
NIDA-CTN-0001,SC,01_059208,9,EDUCYRS,EDUCATION COMPLETED,12,12,12,2001,-1
NIDA-CTN-0001,SC,01_059208,11,EMPLOY30,USUAL EMPLOYMENT PATTERN: PAST 30 DAYS,PART TIME (IRREGULAR DAYWORK),PART TIME (IRREGULAR DAYWORK)," ",2001,-1
NIDA-CTN-0001,SC,01_059208,10,EMPLOY3Y,USUAL EMPLOYMENT PATTERN: PAST 3 YEARS,FULL TIME (35+ HRS/WK),FULL TIME (35+ HRS/WK)," ",2001,-1
NIDA-CTN-0001,SC,01_059208,12,MARITAL,MARITAL STATUS,NEVER MARRIED,NEVER MARRIED," ",2001,-1
NIDA-CTN-0001,SC,01_063935,13,ALLINCL,MET ALL INCLUSION & NO EXCLUSION CRIT.,YES,YES," ",2001,1
NIDA-CTN-0001,SC,01_063935,9,EDUCYRS,EDUCATION COMPLETED,14,14,14,2001,1
NIDA-CTN-0001,SC,01_063935,11,EMPLOY30,USUAL EMPLOYMENT PATTERN: PAST 30 DAYS,UNEMPLOYED,UNEMPLOYED," ",2001,1
NIDA-CTN-0001,SC,01_063935,10,EMPLOY3Y,USUAL EMPLOYMENT PATTERN: PAST 3 YEARS,PART TIME (REGULAR HOURS),PART TIME (REGULAR HOURS)," ",2001,1
NIDA-CTN-0001,SC,01_063935,12,MARITAL,MARITAL STATUS,SEPARATED,SEPARATED," ",2001,1
NIDA-CTN-0001,SC,01_065383,13,ALLINCL,MET ALL INCLUSION & NO EXCLUSION CRIT.,YES,YES," ",2001,1
NIDA-CTN-0001,SC,01_065383,9,EDUCYRS,EDUCATION COMPLETED,13,13,13,2001,1
NIDA-CTN-0001,SC,01_065383,11,EMPLOY30,USUAL EMPLOYMENT PATTERN: PAST 30 DAYS,UNEMPLOYED,UNEMPLOYED," ",2001,1
NIDA-CTN-0001,SC,01_065383,10,EMPLOY3Y,USUAL EMPLOYMENT PATTERN: PAST 3 YEARS,FULL TIME (35+ HRS/WK),FULL TIME (35+ HRS/WK)," ",2001,1
NIDA-CTN-0001,SC,01_065383,12,MARITAL,MARITAL STATUS,LIVING WITH PARTNER/COHABITATING,LIVING WITH PARTNER/COHABITATING," ",2001,1
NIDA-CTN-0001,SC,01_065758,13,ALLINCL,MET ALL INCLUSION & NO EXCLUSION CRIT.,YES,YES," ",2001,1
NIDA-CTN-0001,SC,01_065758,9,EDUCYRS,EDUCATION COMPLETED,14,14,14,2001,1
NIDA-CTN-0001,SC,01_065758,11,EMPLOY30,USUAL EMPLOYMENT PATTERN: PAST 30 DAYS,PART TIME (IRREGULAR DAYWORK),PART TIME (IRREGULAR DAYWORK)," ",2001,1
NIDA-CTN-0001,SC,01_065758,10,EMPLOY3Y,USUAL EMPLOYMENT PATTERN: PAST 3 YEARS,PART TIME (REGULAR HOURS),PART TIME (REGULAR HOURS)," ",2001,1
NIDA-CTN-0001,SC,01_065758,12,MARITAL,MARITAL STATUS,NEVER MARRIED,NEVER MARRIED," ",2001,1
NIDA-CTN-0001,SC,01_066150,13,ALLINCL,MET ALL INCLUSION & NO EXCLUSION CRIT.,YES,YES," ",2002,-1
NIDA-CTN-0001,SC,01_066150,9,EDUCYRS,EDUCATION COMPLETED,13,13,13,2002,-1
NIDA-CTN-0001,SC,01_066150,11,EMPLOY30,USUAL EMPLOYMENT PATTERN: PAST 30 DAYS,UNEMPLOYED,UNEMPLOYED," ",2002,-1
NIDA-CTN-0001,SC,01_066150,10,EMPLOY3Y,USUAL EMPLOYMENT PATTERN: PAST 3 YEARS,FULL TIME (35+ HRS/WK),FULL TIME (35+ HRS/WK)," ",2002,-1
NIDA-CTN-0001,SC,01_066150,12,MARITAL,MARITAL STATUS,NEVER MARRIED,NEVER MARRIED," ",2002,-1
NIDA-CTN-0001,SC,01_067193,13,ALLINCL,MET ALL INCLUSION & NO EXCLUSION CRIT.,YES,YES," ",2001,1
NIDA-CTN-0001,SC,01_067193,9,EDUCYRS,EDUCATION COMPLETED,14,14,14,2001,1
NIDA-CTN-0001,SC,01_067193,11,EMPLOY30,USUAL EMPLOYMENT PATTERN: PAST 30 DAYS,STUDENT,STUDENT," ",2001,1
NIDA-CTN-0001,SC,01_067193,10,EMPLOY3Y,USUAL EMPLOYMENT PATTERN: PAST 3 YEARS,STUDENT,STUDENT," ",2001,1
NIDA-CTN-0001,SC,01_067193,12,MARITAL,MARITAL STATUS,NEVER MARRIED,NEVER MARRIED," ",2001,1
NIDA-CTN-0001,SC,01_067888,13,ALLINCL,MET ALL INCLUSION & NO EXCLUSION CRIT.,YES,YES," ",2001,-1
NIDA-CTN-0001,SC,01_067888,9,EDUCYRS,EDUCATION COMPLETED,12,12,12,2001,-1
NIDA-CTN-0001,SC,01_067888,11,EMPLOY30,USUAL EMPLOYMENT PATTERN: PAST 30 DAYS,FULL TIME (35+ HRS/WK),FULL TIME (35+ HRS/WK)," ",2001,-1
NIDA-CTN-0001,SC,01_067888,10,EMPLOY3Y,USUAL EMPLOYMENT PATTERN: PAST 3 YEARS,FULL TIME (35+ HRS/WK),FULL TIME (35+ HRS/WK)," ",2001,-1
NIDA-CTN-0001,SC,01_067888,12,MARITAL,MARITAL STATUS,WIDOWED,WIDOWED," ",2001,-1
NIDA-CTN-0001,SC,01_068101,13,ALLINCL,MET ALL INCLUSION & NO EXCLUSION CRIT.,YES,YES," ",2002,-1
NIDA-CTN-0001,SC,01_068101,9,EDUCYRS,EDUCATION COMPLETED,17,17,17,2002,-1
NIDA-CTN-0001,SC,01_068101,11,EMPLOY30,USUAL EMPLOYMENT PATTERN: PAST 30 DAYS,STUDENT,STUDENT," ",2002,-1
NIDA-CTN-0001,SC,01_068101,10,EMPLOY3Y,USUAL EMPLOYMENT PATTERN: PAST 3 YEARS,STUDENT,STUDENT," ",2002,-1
NIDA-CTN-0001,SC,01_068101,12,MARITAL,MARITAL STATUS,NEVER MARRIED,NEVER MARRIED," ",2002,-1
NIDA-CTN-0001,SC,01_068916,13,ALLINCL,MET ALL INCLUSION & NO EXCLUSION CRIT.,YES,YES," ",2002,-10
NIDA-CTN-0001,SC,01_068916,9,EDUCYRS,EDUCATION COMPLETED,15,15,15,2002,-10
NIDA-CTN-0001,SC,01_068916,11,EMPLOY30,USUAL EMPLOYMENT PATTERN: PAST 30 DAYS,FULL TIME (35+ HRS/WK),FULL TIME (35+ HRS/WK)," ",2002,-10
NIDA-CTN-0001,SC,01_068916,10,EMPLOY3Y,USUAL EMPLOYMENT PATTERN: PAST 3 YEARS,FULL TIME (35+ HRS/WK),FULL TIME (35+ HRS/WK)," ",2002,-10
NIDA-CTN-0001,SC,01_068916,12,MARITAL,MARITAL STATUS,LEGALLY MARRIED,LEGALLY MARRIED," ",2002,-10
NIDA-CTN-0001,SC,01_071075,13,ALLINCL,MET ALL INCLUSION & NO EXCLUSION CRIT.,YES,YES," ",2001,-1
NIDA-CTN-0001,SC,01_071075,9,EDUCYRS,EDUCATION COMPLETED,12,12,12,2001,-1
NIDA-CTN-0001,SC,01_071075,11,EMPLOY30,USUAL EMPLOYMENT PATTERN: PAST 30 DAYS,UNEMPLOYED,UNEMPLOYED," ",2001,-1
NIDA-CTN-0001,SC,01_071075,10,EMPLOY3Y,USUAL EMPLOYMENT PATTERN: PAST 3 YEARS,FULL TIME (35+ HRS/WK),FULL TIME (35+ HRS/WK)," ",2001,-1
NIDA-CTN-0001,SC,01_071075,12,MARITAL,MARITAL STATUS,LEGALLY MARRIED,LEGALLY MARRIED," ",2001,-1
NIDA-CTN-0001,SC,01_073890,13,ALLINCL,MET ALL INCLUSION & NO EXCLUSION CRIT.,YES,YES," ",2001,-1
NIDA-CTN-0001,SC,01_073890,9,EDUCYRS,EDUCATION COMPLETED,13,13,13,2001,-1
NIDA-CTN-0001,SC,01_073890,11,EMPLOY30,USUAL EMPLOYMENT PATTERN: PAST 30 DAYS,UNEMPLOYED,UNEMPLOYED," ",2001,-1
NIDA-CTN-0001,SC,01_073890,10,EMPLOY3Y,USUAL EMPLOYMENT PATTERN: PAST 3 YEARS,FULL TIME (35+ HRS/WK),FULL TIME (35+ HRS/WK)," ",2001,-1
NIDA-CTN-0001,SC,01_073890,12,MARITAL,MARITAL STATUS,NEVER MARRIED,NEVER MARRIED," ",2001,-1
NIDA-CTN-0001,SC,01_074593,13,ALLINCL,MET ALL INCLUSION & NO EXCLUSION CRIT.,NO,NO," ",2001," "
NIDA-CTN-0001,SC,01_074593,9,EDUCYRS,EDUCATION COMPLETED,12,12,12,2001," "
NIDA-CTN-0001,SC,01_074593,11,EMPLOY30,USUAL EMPLOYMENT PATTERN: PAST 30 DAYS,UNEMPLOYED,UNEMPLOYED," ",2001," "
NIDA-CTN-0001,SC,01_074593,10,EMPLOY3Y,USUAL EMPLOYMENT PATTERN: PAST 3 YEARS,FULL TIME (35+ HRS/WK),FULL TIME (35+ HRS/WK)," ",2001," "
NIDA-CTN-0001,SC,01_074593,12,MARITAL,MARITAL STATUS,DIVORCED,DIVORCED," ",2001," "
NIDA-CTN-0001,SC,01_075298,13,ALLINCL,MET ALL INCLUSION & NO EXCLUSION CRIT.,YES,YES," ",2001,1
NIDA-CTN-0001,SC,01_075298,9,EDUCYRS,EDUCATION COMPLETED,10,10,10,2001,1
NIDA-CTN-0001,SC,01_075298,11,EMPLOY30,USUAL EMPLOYMENT PATTERN: PAST 30 DAYS,FULL TIME (35+ HRS/WK),FULL TIME (35+ HRS/WK)," ",2001,1
NIDA-CTN-0001,SC,01_075298,10,EMPLOY3Y,USUAL EMPLOYMENT PATTERN: PAST 3 YEARS,FULL TIME (35+ HRS/WK),FULL TIME (35+ HRS/WK)," ",2001,1
NIDA-CTN-0001,SC,01_075298,12,MARITAL,MARITAL STATUS,DIVORCED,DIVORCED," ",2001,1
NIDA-CTN-0001,SC,01_075337,13,ALLINCL,MET ALL INCLUSION & NO EXCLUSION CRIT.,YES,YES," ",2002,-1
NIDA-CTN-0001,SC,01_075337,9,EDUCYRS,EDUCATION COMPLETED,10,10,10,2002,-1
NIDA-CTN-0001,SC,01_075337,11,EMPLOY30,USUAL EMPLOYMENT PATTERN: PAST 30 DAYS,UNEMPLOYED,UNEMPLOYED," ",2002,-1
NIDA-CTN-0001,SC,01_075337,10,EMPLOY3Y,USUAL EMPLOYMENT PATTERN: PAST 3 YEARS,UNEMPLOYED,UNEMPLOYED," ",2002,-1
NIDA-CTN-0001,SC,01_075337,12,MARITAL,MARITAL STATUS,NEVER MARRIED,NEVER MARRIED," ",2002,-1
NIDA-CTN-0001,SC,01_076020,13,ALLINCL,MET ALL INCLUSION & NO EXCLUSION CRIT.,YES,YES," ",2001,-5
NIDA-CTN-0001,SC,01_076020,9,EDUCYRS,EDUCATION COMPLETED,12,12,12,2001,-5
NIDA-CTN-0001,SC,01_076020,11,EMPLOY30,USUAL EMPLOYMENT PATTERN: PAST 30 DAYS,PART TIME (IRREGULAR DAYWORK),PART TIME (IRREGULAR DAYWORK)," ",2001,-5
NIDA-CTN-0001,SC,01_076020,10,EMPLOY3Y,USUAL EMPLOYMENT PATTERN: PAST 3 YEARS,FULL TIME (35+ HRS/WK),FULL TIME (35+ HRS/WK)," ",2001,-5
NIDA-CTN-0001,SC,01_076020,12,MARITAL,MARITAL STATUS,LEGALLY MARRIED,LEGALLY MARRIED," ",2001,-5
NIDA-CTN-0001,SC,01_076556,13,ALLINCL,MET ALL INCLUSION & NO EXCLUSION CRIT.,YES,YES," ",2001," "
NIDA-CTN-0001,SC,01_076556,9,EDUCYRS,EDUCATION COMPLETED,12,12,12,2001," "
NIDA-CTN-0001,SC,01_076556,11,EMPLOY30,USUAL EMPLOYMENT PATTERN: PAST 30 DAYS,FULL TIME (35+ HRS/WK),FULL TIME (35+ HRS/WK)," ",2001," "
NIDA-CTN-0001,SC,01_076556,10,EMPLOY3Y,USUAL EMPLOYMENT PATTERN: PAST 3 YEARS,FULL TIME (35+ HRS/WK),FULL TIME (35+ HRS/WK)," ",2001," "
NIDA-CTN-0001,SC,01_076556,12,MARITAL,MARITAL STATUS,NEVER MARRIED,NEVER MARRIED," ",2001," "
NIDA-CTN-0001,SC,01_076607,14,ALLINCL,MET ALL INCLUSION & NO EXCLUSION CRIT.,YES,YES," ",2001,1
NIDA-CTN-0001,SC,01_076607,10,EDUCYRS,EDUCATION COMPLETED,12,12,12,2001,1
NIDA-CTN-0001,SC,01_076607,12,EMPLOY30,USUAL EMPLOYMENT PATTERN: PAST 30 DAYS,PART TIME (IRREGULAR DAYWORK),PART TIME (IRREGULAR DAYWORK)," ",2001,1
NIDA-CTN-0001,SC,01_076607,11,EMPLOY3Y,USUAL EMPLOYMENT PATTERN: PAST 3 YEARS,PART TIME (IRREGULAR DAYWORK),PART TIME (IRREGULAR DAYWORK)," ",2001,1
NIDA-CTN-0001,SC,01_076607,13,MARITAL,MARITAL STATUS,NEVER MARRIED,NEVER MARRIED," ",2001,1
NIDA-CTN-0001,SC,01_077269,14,ALLINCL,MET ALL INCLUSION & NO EXCLUSION CRIT.,YES,YES," ",2002,-1
NIDA-CTN-0001,SC,01_077269,10,EDUCYRS,EDUCATION COMPLETED,12,12,12,2002,-1
NIDA-CTN-0001,SC,01_077269,12,EMPLOY30,USUAL EMPLOYMENT PATTERN: PAST 30 DAYS,PART TIME (IRREGULAR DAYWORK),PART TIME (IRREGULAR DAYWORK)," ",2002,-1
NIDA-CTN-0001,SC,01_077269,11,EMPLOY3Y,USUAL EMPLOYMENT PATTERN: PAST 3 YEARS,PART TIME (REGULAR HOURS),PART TIME (REGULAR HOURS)," ",2002,-1
NIDA-CTN-0001,SC,01_077269,13,MARITAL,MARITAL STATUS,DIVORCED,DIVORCED," ",2002,-1
NIDA-CTN-0001,SC,01_077274,14,ALLINCL,MET ALL INCLUSION & NO EXCLUSION CRIT.,YES,YES," ",2001,-5
NIDA-CTN-0001,SC,01_077274,10,EDUCYRS,EDUCATION COMPLETED,14,14,14,2001,-5
NIDA-CTN-0001,SC,01_077274,12,EMPLOY30,USUAL EMPLOYMENT PATTERN: PAST 30 DAYS,RETIRED/DISABILITY,RETIRED/DISABILITY," ",2001,-5
NIDA-CTN-0001,SC,01_077274,11,EMPLOY3Y,USUAL EMPLOYMENT PATTERN: PAST 3 YEARS,FULL TIME (35+ HRS/WK),FULL TIME (35+ HRS/WK)," ",2001,-5
NIDA-CTN-0001,SC,01_077274,13,MARITAL,MARITAL STATUS,DIVORCED,DIVORCED," ",2001,-5
NIDA-CTN-0001,SC,01_077768,13,ALLINCL,MET ALL INCLUSION & NO EXCLUSION CRIT.,YES,YES," ",2001,1
NIDA-CTN-0001,SC,01_077768,9,EDUCYRS,EDUCATION COMPLETED,15,15,15,2001,1
NIDA-CTN-0001,SC,01_077768,11,EMPLOY30,USUAL EMPLOYMENT PATTERN: PAST 30 DAYS,FULL TIME (35+ HRS/WK),FULL TIME (35+ HRS/WK)," ",2001,1
NIDA-CTN-0001,SC,01_077768,10,EMPLOY3Y,USUAL EMPLOYMENT PATTERN: PAST 3 YEARS,FULL TIME (35+ HRS/WK),FULL TIME (35+ HRS/WK)," ",2001,1
NIDA-CTN-0001,SC,01_077768,12,MARITAL,MARITAL STATUS,DIVORCED,DIVORCED," ",2001,1
NIDA-CTN-0001,SC,01_078258,13,ALLINCL,MET ALL INCLUSION & NO EXCLUSION CRIT.,NO,NO," ",2002," "
NIDA-CTN-0001,SC,01_078258,9,EDUCYRS,EDUCATION COMPLETED,7,7,7,2002," "
NIDA-CTN-0001,SC,01_078258,11,EMPLOY30,USUAL EMPLOYMENT PATTERN: PAST 30 DAYS,UNEMPLOYED,UNEMPLOYED," ",2002," "
NIDA-CTN-0001,SC,01_078258,10,EMPLOY3Y,USUAL EMPLOYMENT PATTERN: PAST 3 YEARS,PART TIME (IRREGULAR DAYWORK),PART TIME (IRREGULAR DAYWORK)," ",2002," "
NIDA-CTN-0001,SC,01_078258,12,MARITAL,MARITAL STATUS,SEPARATED,SEPARATED," ",2002," "
NIDA-CTN-0001,SC,01_078367,13,ALLINCL,MET ALL INCLUSION & NO EXCLUSION CRIT.,YES,YES," ",2001,1
NIDA-CTN-0001,SC,01_078367,9,EDUCYRS,EDUCATION COMPLETED,14,14,14,2001,1
NIDA-CTN-0001,SC,01_078367,11,EMPLOY30,USUAL EMPLOYMENT PATTERN: PAST 30 DAYS,FULL TIME (35+ HRS/WK),FULL TIME (35+ HRS/WK)," ",2001,1
NIDA-CTN-0001,SC,01_078367,10,EMPLOY3Y,USUAL EMPLOYMENT PATTERN: PAST 3 YEARS,FULL TIME (35+ HRS/WK),FULL TIME (35+ HRS/WK)," ",2001,1
NIDA-CTN-0001,SC,01_078367,12,MARITAL,MARITAL STATUS,NEVER MARRIED,NEVER MARRIED," ",2001,1
NIDA-CTN-0001,SC,01_078685,14,ALLINCL,MET ALL INCLUSION & NO EXCLUSION CRIT.,NO,NO," ",2001," "
NIDA-CTN-0001,SC,01_078685,10,EDUCYRS,EDUCATION COMPLETED,10,10,10,2001," "
NIDA-CTN-0001,SC,01_078685,12,EMPLOY30,USUAL EMPLOYMENT PATTERN: PAST 30 DAYS,FULL TIME (35+ HRS/WK),FULL TIME (35+ HRS/WK)," ",2001," "
NIDA-CTN-0001,SC,01_078685,11,EMPLOY3Y,USUAL EMPLOYMENT PATTERN: PAST 3 YEARS,FULL TIME (35+ HRS/WK),FULL TIME (35+ HRS/WK)," ",2001," "
NIDA-CTN-0001,SC,01_078685,13,MARITAL,MARITAL STATUS,NEVER MARRIED,NEVER MARRIED," ",2001," "
NIDA-CTN-0001,SC,01_079476,14,ALLINCL,MET ALL INCLUSION & NO EXCLUSION CRIT.,NO,NO," ",2001," "
NIDA-CTN-0001,SC,01_079476,10,EDUCYRS,EDUCATION COMPLETED,14,14,14,2001," "
NIDA-CTN-0001,SC,01_079476,12,EMPLOY30,USUAL EMPLOYMENT PATTERN: PAST 30 DAYS,UNEMPLOYED,UNEMPLOYED," ",2001," "
NIDA-CTN-0001,SC,01_079476,11,EMPLOY3Y,USUAL EMPLOYMENT PATTERN: PAST 3 YEARS,UNEMPLOYED,UNEMPLOYED," ",2001," "
NIDA-CTN-0001,SC,01_079476,13,MARITAL,MARITAL STATUS,NEVER MARRIED,NEVER MARRIED," ",2001," "
NIDA-CTN-0001,SC,01_081464,13,ALLINCL,MET ALL INCLUSION & NO EXCLUSION CRIT.,YES,YES," ",2001,-1
NIDA-CTN-0001,SC,01_081464,9,EDUCYRS,EDUCATION COMPLETED,16,16,16,2001,-1
NIDA-CTN-0001,SC,01_081464,11,EMPLOY30,USUAL EMPLOYMENT PATTERN: PAST 30 DAYS,PART TIME (IRREGULAR DAYWORK),PART TIME (IRREGULAR DAYWORK)," ",2001,-1
NIDA-CTN-0001,SC,01_081464,10,EMPLOY3Y,USUAL EMPLOYMENT PATTERN: PAST 3 YEARS,FULL TIME (35+ HRS/WK),FULL TIME (35+ HRS/WK)," ",2001,-1
NIDA-CTN-0001,SC,01_081464,12,MARITAL,MARITAL STATUS,LEGALLY MARRIED,LEGALLY MARRIED," ",2001,-1
NIDA-CTN-0001,SC,01_081605,14,ALLINCL,MET ALL INCLUSION & NO EXCLUSION CRIT.,YES,YES," ",2001,-1
NIDA-CTN-0001,SC,01_081605,10,EDUCYRS,EDUCATION COMPLETED,14,14,14,2001,-1
NIDA-CTN-0001,SC,01_081605,12,EMPLOY30,USUAL EMPLOYMENT PATTERN: PAST 30 DAYS,UNEMPLOYED,UNEMPLOYED," ",2001,-1
NIDA-CTN-0001,SC,01_081605,11,EMPLOY3Y,USUAL EMPLOYMENT PATTERN: PAST 3 YEARS,FULL TIME (35+ HRS/WK),FULL TIME (35+ HRS/WK)," ",2001,-1
NIDA-CTN-0001,SC,01_081605,13,MARITAL,MARITAL STATUS,DIVORCED,DIVORCED," ",2001,-1
NIDA-CTN-0001,SC,01_082781,13,ALLINCL,MET ALL INCLUSION & NO EXCLUSION CRIT.,YES,YES," ",2002,1
NIDA-CTN-0001,SC,01_082781,9,EDUCYRS,EDUCATION COMPLETED,12,12,12,2002,1
NIDA-CTN-0001,SC,01_082781,11,EMPLOY30,USUAL EMPLOYMENT PATTERN: PAST 30 DAYS,UNEMPLOYED,UNEMPLOYED," ",2002,1
NIDA-CTN-0001,SC,01_082781,10,EMPLOY3Y,USUAL EMPLOYMENT PATTERN: PAST 3 YEARS,UNEMPLOYED,UNEMPLOYED," ",2002,1
NIDA-CTN-0001,SC,01_082781,12,MARITAL,MARITAL STATUS,NEVER MARRIED,NEVER MARRIED," ",2002,1
NIDA-CTN-0001,SC,01_085187,14,ALLINCL,MET ALL INCLUSION & NO EXCLUSION CRIT.,YES,YES," ",2001,-1
NIDA-CTN-0001,SC,01_085187,10,EDUCYRS,EDUCATION COMPLETED,11,11,11,2001,-1
NIDA-CTN-0001,SC,01_085187,12,EMPLOY30,USUAL EMPLOYMENT PATTERN: PAST 30 DAYS,FULL TIME (35+ HRS/WK),FULL TIME (35+ HRS/WK)," ",2001,-1
NIDA-CTN-0001,SC,01_085187,11,EMPLOY3Y,USUAL EMPLOYMENT PATTERN: PAST 3 YEARS,FULL TIME (35+ HRS/WK),FULL TIME (35+ HRS/WK)," ",2001,-1
NIDA-CTN-0001,SC,01_085187,13,MARITAL,MARITAL STATUS,NEVER MARRIED,NEVER MARRIED," ",2001,-1
NIDA-CTN-0001,SC,01_085255,13,ALLINCL,MET ALL INCLUSION & NO EXCLUSION CRIT.,YES,YES," ",2001,-2
NIDA-CTN-0001,SC,01_085255,9,EDUCYRS,EDUCATION COMPLETED,13,13,13,2001,-2
NIDA-CTN-0001,SC,01_085255,11,EMPLOY30,USUAL EMPLOYMENT PATTERN: PAST 30 DAYS,PART TIME (IRREGULAR DAYWORK),PART TIME (IRREGULAR DAYWORK)," ",2001,-2
NIDA-CTN-0001,SC,01_085255,10,EMPLOY3Y,USUAL EMPLOYMENT PATTERN: PAST 3 YEARS,PART TIME (IRREGULAR DAYWORK),PART TIME (IRREGULAR DAYWORK)," ",2001,-2
NIDA-CTN-0001,SC,01_085255,12,MARITAL,MARITAL STATUS,LEGALLY MARRIED,LEGALLY MARRIED," ",2001,-2
NIDA-CTN-0001,SC,01_085459,13,ALLINCL,MET ALL INCLUSION & NO EXCLUSION CRIT.,YES,YES," ",2001,-6
NIDA-CTN-0001,SC,01_085459,9,EDUCYRS,EDUCATION COMPLETED,12,12,12,2001,-6
NIDA-CTN-0001,SC,01_085459,11,EMPLOY30,USUAL EMPLOYMENT PATTERN: PAST 30 DAYS,HOMEMAKER,HOMEMAKER," ",2001,-6
NIDA-CTN-0001,SC,01_085459,10,EMPLOY3Y,USUAL EMPLOYMENT PATTERN: PAST 3 YEARS,HOMEMAKER,HOMEMAKER," ",2001,-6
NIDA-CTN-0001,SC,01_085459,12,MARITAL,MARITAL STATUS,LIVING WITH PARTNER/COHABITATING,LIVING WITH PARTNER/COHABITATING," ",2001,-6
NIDA-CTN-0001,SC,01_086219,13,ALLINCL,MET ALL INCLUSION & NO EXCLUSION CRIT.,YES,YES," ",2001,1
NIDA-CTN-0001,SC,01_086219,9,EDUCYRS,EDUCATION COMPLETED,12,12,12,2001,1
NIDA-CTN-0001,SC,01_086219,11,EMPLOY30,USUAL EMPLOYMENT PATTERN: PAST 30 DAYS,FULL TIME (35+ HRS/WK),FULL TIME (35+ HRS/WK)," ",2001,1
NIDA-CTN-0001,SC,01_086219,10,EMPLOY3Y,USUAL EMPLOYMENT PATTERN: PAST 3 YEARS,FULL TIME (35+ HRS/WK),FULL TIME (35+ HRS/WK)," ",2001,1
NIDA-CTN-0001,SC,01_086219,12,MARITAL,MARITAL STATUS,DIVORCED,DIVORCED," ",2001,1
NIDA-CTN-0001,SC,01_086495,14,ALLINCL,MET ALL INCLUSION & NO EXCLUSION CRIT.,YES,YES," ",2001,1
NIDA-CTN-0001,SC,01_086495,10,EDUCYRS,EDUCATION COMPLETED,13,13,13,2001,1
NIDA-CTN-0001,SC,01_086495,12,EMPLOY30,USUAL EMPLOYMENT PATTERN: PAST 30 DAYS,FULL TIME (35+ HRS/WK),FULL TIME (35+ HRS/WK)," ",2001,1
NIDA-CTN-0001,SC,01_086495,11,EMPLOY3Y,USUAL EMPLOYMENT PATTERN: PAST 3 YEARS,FULL TIME (35+ HRS/WK),FULL TIME (35+ HRS/WK)," ",2001,1
NIDA-CTN-0001,SC,01_086495,13,MARITAL,MARITAL STATUS,SEPARATED,SEPARATED," ",2001,1
NIDA-CTN-0001,SC,01_086738,13,ALLINCL,MET ALL INCLUSION & NO EXCLUSION CRIT.,YES,YES," ",2002,1
NIDA-CTN-0001,SC,01_086738,9,EDUCYRS,EDUCATION COMPLETED,12,12,12,2002,1
NIDA-CTN-0001,SC,01_086738,11,EMPLOY30,USUAL EMPLOYMENT PATTERN: PAST 30 DAYS,FULL TIME (35+ HRS/WK),FULL TIME (35+ HRS/WK)," ",2002,1
NIDA-CTN-0001,SC,01_086738,10,EMPLOY3Y,USUAL EMPLOYMENT PATTERN: PAST 3 YEARS,FULL TIME (35+ HRS/WK),FULL TIME (35+ HRS/WK)," ",2002,1
NIDA-CTN-0001,SC,01_086738,12,MARITAL,MARITAL STATUS,NEVER MARRIED,NEVER MARRIED," ",2002,1
NIDA-CTN-0001,SC,01_087806,13,ALLINCL,MET ALL INCLUSION & NO EXCLUSION CRIT.,YES,YES," ",2001,-1
NIDA-CTN-0001,SC,01_087806,9,EDUCYRS,EDUCATION COMPLETED,12,12,12,2001,-1
NIDA-CTN-0001,SC,01_087806,11,EMPLOY30,USUAL EMPLOYMENT PATTERN: PAST 30 DAYS,HOMEMAKER,HOMEMAKER," ",2001,-1
NIDA-CTN-0001,SC,01_087806,10,EMPLOY3Y,USUAL EMPLOYMENT PATTERN: PAST 3 YEARS,HOMEMAKER,HOMEMAKER," ",2001,-1
NIDA-CTN-0001,SC,01_087806,12,MARITAL,MARITAL STATUS,LEGALLY MARRIED,LEGALLY MARRIED," ",2001,-1
NIDA-CTN-0001,SC,01_089078,13,ALLINCL,MET ALL INCLUSION & NO EXCLUSION CRIT.,YES,YES," ",2001,1
NIDA-CTN-0001,SC,01_089078,9,EDUCYRS,EDUCATION COMPLETED,12,12,12,2001,1
NIDA-CTN-0001,SC,01_089078,11,EMPLOY30,USUAL EMPLOYMENT PATTERN: PAST 30 DAYS,FULL TIME (35+ HRS/WK),FULL TIME (35+ HRS/WK)," ",2001,1
NIDA-CTN-0001,SC,01_089078,10,EMPLOY3Y,USUAL EMPLOYMENT PATTERN: PAST 3 YEARS,FULL TIME (35+ HRS/WK),FULL TIME (35+ HRS/WK)," ",2001,1
NIDA-CTN-0001,SC,01_089078,12,MARITAL,MARITAL STATUS,NEVER MARRIED,NEVER MARRIED," ",2001,1
NIDA-CTN-0001,SC,01_089532,13,ALLINCL,MET ALL INCLUSION & NO EXCLUSION CRIT.,YES,YES," ",2001,1
NIDA-CTN-0001,SC,01_089532,9,EDUCYRS,EDUCATION COMPLETED,15,15,15,2001,1
NIDA-CTN-0001,SC,01_089532,11,EMPLOY30,USUAL EMPLOYMENT PATTERN: PAST 30 DAYS,UNEMPLOYED,UNEMPLOYED," ",2001,1
NIDA-CTN-0001,SC,01_089532,10,EMPLOY3Y,USUAL EMPLOYMENT PATTERN: PAST 3 YEARS,FULL TIME (35+ HRS/WK),FULL TIME (35+ HRS/WK)," ",2001,1
NIDA-CTN-0001,SC,01_089532,12,MARITAL,MARITAL STATUS,LEGALLY MARRIED,LEGALLY MARRIED," ",2001,1
NIDA-CTN-0001,SC,01_089830,13,ALLINCL,MET ALL INCLUSION & NO EXCLUSION CRIT.,YES,YES," ",2001,1
NIDA-CTN-0001,SC,01_089830,9,EDUCYRS,EDUCATION COMPLETED,15,15,15,2001,1
NIDA-CTN-0001,SC,01_089830,11,EMPLOY30,USUAL EMPLOYMENT PATTERN: PAST 30 DAYS,PART TIME (IRREGULAR DAYWORK),PART TIME (IRREGULAR DAYWORK)," ",2001,1
NIDA-CTN-0001,SC,01_089830,10,EMPLOY3Y,USUAL EMPLOYMENT PATTERN: PAST 3 YEARS,FULL TIME (35+ HRS/WK),FULL TIME (35+ HRS/WK)," ",2001,1
NIDA-CTN-0001,SC,01_089830,12,MARITAL,MARITAL STATUS,LEGALLY MARRIED,LEGALLY MARRIED," ",2001,1
NIDA-CTN-0001,SC,01_090085,13,ALLINCL,MET ALL INCLUSION & NO EXCLUSION CRIT.,YES,YES," ",2001,1
NIDA-CTN-0001,SC,01_090085,9,EDUCYRS,EDUCATION COMPLETED,14,14,14,2001,1
NIDA-CTN-0001,SC,01_090085,11,EMPLOY30,USUAL EMPLOYMENT PATTERN: PAST 30 DAYS,UNEMPLOYED,UNEMPLOYED," ",2001,1
NIDA-CTN-0001,SC,01_090085,10,EMPLOY3Y,USUAL EMPLOYMENT PATTERN: PAST 3 YEARS,UNEMPLOYED,UNEMPLOYED," ",2001,1
NIDA-CTN-0001,SC,01_090085,12,MARITAL,MARITAL STATUS,LIVING WITH PARTNER/COHABITATING,LIVING WITH PARTNER/COHABITATING," ",2001,1
NIDA-CTN-0001,SC,01_090131,13,ALLINCL,MET ALL INCLUSION & NO EXCLUSION CRIT.,YES,YES," ",2001,1
NIDA-CTN-0001,SC,01_090131,9,EDUCYRS,EDUCATION COMPLETED,12,12,12,2001,1
NIDA-CTN-0001,SC,01_090131,11,EMPLOY30,USUAL EMPLOYMENT PATTERN: PAST 30 DAYS,UNEMPLOYED,UNEMPLOYED," ",2001,1
NIDA-CTN-0001,SC,01_090131,10,EMPLOY3Y,USUAL EMPLOYMENT PATTERN: PAST 3 YEARS,FULL TIME (35+ HRS/WK),FULL TIME (35+ HRS/WK)," ",2001,1
NIDA-CTN-0001,SC,01_090131,12,MARITAL,MARITAL STATUS,DIVORCED,DIVORCED," ",2001,1
NIDA-CTN-0001,SC,01_091487,13,ALLINCL,MET ALL INCLUSION & NO EXCLUSION CRIT.,YES,YES," ",2001,1
NIDA-CTN-0001,SC,01_091487,9,EDUCYRS,EDUCATION COMPLETED,16,16,16,2001,1
NIDA-CTN-0001,SC,01_091487,11,EMPLOY30,USUAL EMPLOYMENT PATTERN: PAST 30 DAYS,FULL TIME (35+ HRS/WK),FULL TIME (35+ HRS/WK)," ",2001,1
NIDA-CTN-0001,SC,01_091487,10,EMPLOY3Y,USUAL EMPLOYMENT PATTERN: PAST 3 YEARS,FULL TIME (35+ HRS/WK),FULL TIME (35+ HRS/WK)," ",2001,1
NIDA-CTN-0001,SC,01_091487,12,MARITAL,MARITAL STATUS,LIVING WITH PARTNER/COHABITATING,LIVING WITH PARTNER/COHABITATING," ",2001,1
NIDA-CTN-0001,SC,01_091767,13,ALLINCL,MET ALL INCLUSION & NO EXCLUSION CRIT.,YES,YES," ",2001,1
NIDA-CTN-0001,SC,01_091767,9,EDUCYRS,EDUCATION COMPLETED,12,12,12,2001,1
NIDA-CTN-0001,SC,01_091767,11,EMPLOY30,USUAL EMPLOYMENT PATTERN: PAST 30 DAYS,PART TIME (REGULAR HOURS),PART TIME (REGULAR HOURS)," ",2001,1
NIDA-CTN-0001,SC,01_091767,10,EMPLOY3Y,USUAL EMPLOYMENT PATTERN: PAST 3 YEARS,FULL TIME (35+ HRS/WK),FULL TIME (35+ HRS/WK)," ",2001,1
NIDA-CTN-0001,SC,01_091767,12,MARITAL,MARITAL STATUS,NEVER MARRIED,NEVER MARRIED," ",2001,1
NIDA-CTN-0001,SC,01_093422,13,ALLINCL,MET ALL INCLUSION & NO EXCLUSION CRIT.,YES,YES," ",2002,1
NIDA-CTN-0001,SC,01_093422,9,EDUCYRS,EDUCATION COMPLETED,8,8,8,2002,1
NIDA-CTN-0001,SC,01_093422,11,EMPLOY30,USUAL EMPLOYMENT PATTERN: PAST 30 DAYS,UNEMPLOYED,UNEMPLOYED," ",2002,1
NIDA-CTN-0001,SC,01_093422,10,EMPLOY3Y,USUAL EMPLOYMENT PATTERN: PAST 3 YEARS,UNEMPLOYED,UNEMPLOYED," ",2002,1
NIDA-CTN-0001,SC,01_093422,12,MARITAL,MARITAL STATUS,LIVING WITH PARTNER/COHABITATING,LIVING WITH PARTNER/COHABITATING," ",2002,1
NIDA-CTN-0001,SC,01_094281,13,ALLINCL,MET ALL INCLUSION & NO EXCLUSION CRIT.,YES,YES," ",2001,1
NIDA-CTN-0001,SC,01_094281,9,EDUCYRS,EDUCATION COMPLETED,12,12,12,2001,1
NIDA-CTN-0001,SC,01_094281,11,EMPLOY30,USUAL EMPLOYMENT PATTERN: PAST 30 DAYS,FULL TIME (35+ HRS/WK),FULL TIME (35+ HRS/WK)," ",2001,1
NIDA-CTN-0001,SC,01_094281,10,EMPLOY3Y,USUAL EMPLOYMENT PATTERN: PAST 3 YEARS,UNEMPLOYED,UNEMPLOYED," ",2001,1
NIDA-CTN-0001,SC,01_094281,12,MARITAL,MARITAL STATUS,SEPARATED,SEPARATED," ",2001,1
NIDA-CTN-0001,SC,01_096578,12,ALLINCL,MET ALL INCLUSION & NO EXCLUSION CRIT.,YES,YES," ",2001,1
NIDA-CTN-0001,SC,01_096578,9,EDUCYRS,EDUCATION COMPLETED,12,12,12,2001,1
NIDA-CTN-0001,SC,01_096578,10,EMPLOY30,USUAL EMPLOYMENT PATTERN: PAST 30 DAYS,PART TIME (REGULAR HOURS),PART TIME (REGULAR HOURS)," ",2001,1
NIDA-CTN-0001,SC,01_096578,11,MARITAL,MARITAL STATUS,LIVING WITH PARTNER/COHABITATING,LIVING WITH PARTNER/COHABITATING," ",2001,1
NIDA-CTN-0001,SC,01_096713,13,ALLINCL,MET ALL INCLUSION & NO EXCLUSION CRIT.,YES,YES," ",2001,1
NIDA-CTN-0001,SC,01_096713,9,EDUCYRS,EDUCATION COMPLETED,12,12,12,2001,1
NIDA-CTN-0001,SC,01_096713,11,EMPLOY30,USUAL EMPLOYMENT PATTERN: PAST 30 DAYS,UNEMPLOYED,UNEMPLOYED," ",2001,1
NIDA-CTN-0001,SC,01_096713,10,EMPLOY3Y,USUAL EMPLOYMENT PATTERN: PAST 3 YEARS,FULL TIME (35+ HRS/WK),FULL TIME (35+ HRS/WK)," ",2001,1
NIDA-CTN-0001,SC,01_096713,12,MARITAL,MARITAL STATUS,DIVORCED,DIVORCED," ",2001,1
NIDA-CTN-0001,SC,01_096723,13,ALLINCL,MET ALL INCLUSION & NO EXCLUSION CRIT.,YES,YES," ",2001,1
NIDA-CTN-0001,SC,01_096723,9,EDUCYRS,EDUCATION COMPLETED,12,12,12,2001,1
NIDA-CTN-0001,SC,01_096723,11,EMPLOY30,USUAL EMPLOYMENT PATTERN: PAST 30 DAYS,PART TIME (IRREGULAR DAYWORK),PART TIME (IRREGULAR DAYWORK)," ",2001,1
NIDA-CTN-0001,SC,01_096723,10,EMPLOY3Y,USUAL EMPLOYMENT PATTERN: PAST 3 YEARS,FULL TIME (35+ HRS/WK),FULL TIME (35+ HRS/WK)," ",2001,1
NIDA-CTN-0001,SC,01_096723,12,MARITAL,MARITAL STATUS,NEVER MARRIED,NEVER MARRIED," ",2001,1
NIDA-CTN-0001,SC,01_097261,13,ALLINCL,MET ALL INCLUSION & NO EXCLUSION CRIT.,YES,YES," ",2001,1
NIDA-CTN-0001,SC,01_097261,9,EDUCYRS,EDUCATION COMPLETED,12,12,12,2001,1
NIDA-CTN-0001,SC,01_097261,11,EMPLOY30,USUAL EMPLOYMENT PATTERN: PAST 30 DAYS,FULL TIME (35+ HRS/WK),FULL TIME (35+ HRS/WK)," ",2001,1
NIDA-CTN-0001,SC,01_097261,10,EMPLOY3Y,USUAL EMPLOYMENT PATTERN: PAST 3 YEARS,UNEMPLOYED,UNEMPLOYED," ",2001,1
NIDA-CTN-0001,SC,01_097261,12,MARITAL,MARITAL STATUS,LEGALLY MARRIED,LEGALLY MARRIED," ",2001,1
NIDA-CTN-0001,SC,01_097324,13,ALLINCL,MET ALL INCLUSION & NO EXCLUSION CRIT.,NO,NO," ",2001," "
NIDA-CTN-0001,SC,01_097324,9,EDUCYRS,EDUCATION COMPLETED,12,12,12,2001," "
NIDA-CTN-0001,SC,01_097324,11,EMPLOY30,USUAL EMPLOYMENT PATTERN: PAST 30 DAYS,UNEMPLOYED,UNEMPLOYED," ",2001," "
NIDA-CTN-0001,SC,01_097324,10,EMPLOY3Y,USUAL EMPLOYMENT PATTERN: PAST 3 YEARS,UNEMPLOYED,UNEMPLOYED," ",2001," "
NIDA-CTN-0001,SC,01_097324,12,MARITAL,MARITAL STATUS,NEVER MARRIED,NEVER MARRIED," ",2001," "
NIDA-CTN-0001,SC,01_097597,13,ALLINCL,MET ALL INCLUSION & NO EXCLUSION CRIT.,NO,NO," ",2001," "
NIDA-CTN-0001,SC,01_097597,9,EDUCYRS,EDUCATION COMPLETED,15,15,15,2001," "
NIDA-CTN-0001,SC,01_097597,11,EMPLOY30,USUAL EMPLOYMENT PATTERN: PAST 30 DAYS,HOMEMAKER,HOMEMAKER," ",2001," "
NIDA-CTN-0001,SC,01_097597,10,EMPLOY3Y,USUAL EMPLOYMENT PATTERN: PAST 3 YEARS,HOMEMAKER,HOMEMAKER," ",2001," "
NIDA-CTN-0001,SC,01_097597,12,MARITAL,MARITAL STATUS,DIVORCED,DIVORCED," ",2001," "
NIDA-CTN-0001,SC,01_098468,13,ALLINCL,MET ALL INCLUSION & NO EXCLUSION CRIT.,YES,YES," ",2001,-1
NIDA-CTN-0001,SC,01_098468,9,EDUCYRS,EDUCATION COMPLETED,12,12,12,2001,-1
NIDA-CTN-0001,SC,01_098468,11,EMPLOY30,USUAL EMPLOYMENT PATTERN: PAST 30 DAYS,HOMEMAKER,HOMEMAKER," ",2001,-1
NIDA-CTN-0001,SC,01_098468,10,EMPLOY3Y,USUAL EMPLOYMENT PATTERN: PAST 3 YEARS,HOMEMAKER,HOMEMAKER," ",2001,-1
NIDA-CTN-0001,SC,01_098468,12,MARITAL,MARITAL STATUS,DIVORCED,DIVORCED," ",2001,-1
NIDA-CTN-0001,SC,01_098522,13,ALLINCL,MET ALL INCLUSION & NO EXCLUSION CRIT.,NO,NO," ",2001," "
NIDA-CTN-0001,SC,01_098522,9,EDUCYRS,EDUCATION COMPLETED,14,14,14,2001," "
NIDA-CTN-0001,SC,01_098522,11,EMPLOY30,USUAL EMPLOYMENT PATTERN: PAST 30 DAYS,RETIRED/DISABILITY,RETIRED/DISABILITY," ",2001," "
NIDA-CTN-0001,SC,01_098522,10,EMPLOY3Y,USUAL EMPLOYMENT PATTERN: PAST 3 YEARS,FULL TIME (35+ HRS/WK),FULL TIME (35+ HRS/WK)," ",2001," "
NIDA-CTN-0001,SC,01_098522,12,MARITAL,MARITAL STATUS,LIVING WITH PARTNER/COHABITATING,LIVING WITH PARTNER/COHABITATING," ",2001," "
NIDA-CTN-0001,SC,01_099356,13,ALLINCL,MET ALL INCLUSION & NO EXCLUSION CRIT.,YES,YES," ",2002,-1
NIDA-CTN-0001,SC,01_099356,9,EDUCYRS,EDUCATION COMPLETED,16,16,16,2002,-1
NIDA-CTN-0001,SC,01_099356,11,EMPLOY30,USUAL EMPLOYMENT PATTERN: PAST 30 DAYS,FULL TIME (35+ HRS/WK),FULL TIME (35+ HRS/WK)," ",2002,-1
NIDA-CTN-0001,SC,01_099356,10,EMPLOY3Y,USUAL EMPLOYMENT PATTERN: PAST 3 YEARS,FULL TIME (35+ HRS/WK),FULL TIME (35+ HRS/WK)," ",2002,-1
NIDA-CTN-0001,SC,01_099356,12,MARITAL,MARITAL STATUS,LEGALLY MARRIED,LEGALLY MARRIED," ",2002,-1
