STUDYID,DOMAIN,USUBJID,EPOCH,MHSEQ,MHSPID,MHTERM,MHOCCUR,MHSTAT,VISIT,VISITNUM,MHDTC,MHDY,MHENRF
NIDA-CTN-0002,MH,02_000549,SCREENING,31,16,ALLERGIES,N,,"BASELINE, ANY DAY PRIOR TO FIRST DOSE",0,2001,-8,BEFORE
NIDA-CTN-0002,MH,02_000549,SCREENING,32,16,ALLERGIES,N,,"BASELINE, ANY DAY PRIOR TO FIRST DOSE",0,2001,-8,DURING/AFTER
NIDA-CTN-0002,MH,02_000549,SCREENING,5,3,CARDIOVASCULAR,N,,"BASELINE, ANY DAY PRIOR TO FIRST DOSE",0,2001,-8,BEFORE
NIDA-CTN-0002,MH,02_000549,SCREENING,6,3,CARDIOVASCULAR,N,,"BASELINE, ANY DAY PRIOR TO FIRST DOSE",0,2001,-8,DURING/AFTER
NIDA-CTN-0002,MH,02_000549,SCREENING,1,1,DERMATOLOGICAL,N,,"BASELINE, ANY DAY PRIOR TO FIRST DOSE",0,2001,-8,BEFORE
NIDA-CTN-0002,MH,02_000549,SCREENING,2,1,DERMATOLOGICAL,N,,"BASELINE, ANY DAY PRIOR TO FIRST DOSE",0,2001,-8,DURING/AFTER
NIDA-CTN-0002,MH,02_000549,SCREENING,23,12,ENDOCRINE,N,,"BASELINE, ANY DAY PRIOR TO FIRST DOSE",0,2001,-8,BEFORE
NIDA-CTN-0002,MH,02_000549,SCREENING,24,12,ENDOCRINE,N,,"BASELINE, ANY DAY PRIOR TO FIRST DOSE",0,2001,-8,DURING/AFTER
NIDA-CTN-0002,MH,02_000549,SCREENING,3,2,"EYES, EARS, NOSE, AND THROAT",N,,"BASELINE, ANY DAY PRIOR TO FIRST DOSE",0,2001,-8,BEFORE
NIDA-CTN-0002,MH,02_000549,SCREENING,4,2,"EYES, EARS, NOSE, AND THROAT",N,,"BASELINE, ANY DAY PRIOR TO FIRST DOSE",0,2001,-8,DURING/AFTER
NIDA-CTN-0002,MH,02_000549,SCREENING,17,9,GASTROINTESTINAL,N,,"BASELINE, ANY DAY PRIOR TO FIRST DOSE",0,2001,-8,BEFORE
NIDA-CTN-0002,MH,02_000549,SCREENING,18,9,GASTROINTESTINAL,N,,"BASELINE, ANY DAY PRIOR TO FIRST DOSE",0,2001,-8,DURING/AFTER
NIDA-CTN-0002,MH,02_000549,SCREENING,21,11,GENITOURINARY,N,,"BASELINE, ANY DAY PRIOR TO FIRST DOSE",0,2001,-8,BEFORE
NIDA-CTN-0002,MH,02_000549,SCREENING,22,11,GENITOURINARY,N,,"BASELINE, ANY DAY PRIOR TO FIRST DOSE",0,2001,-8,DURING/AFTER
NIDA-CTN-0002,MH,02_000549,SCREENING,19,10,HEPATIC,N,,"BASELINE, ANY DAY PRIOR TO FIRST DOSE",0,2001,-8,BEFORE
NIDA-CTN-0002,MH,02_000549,SCREENING,20,10,HEPATIC,N,,"BASELINE, ANY DAY PRIOR TO FIRST DOSE",0,2001,-8,DURING/AFTER
NIDA-CTN-0002,MH,02_000549,SCREENING,15,8,MUSCULOSKELETAL,N,,"BASELINE, ANY DAY PRIOR TO FIRST DOSE",0,2001,-8,BEFORE
NIDA-CTN-0002,MH,02_000549,SCREENING,16,8,MUSCULOSKELETAL,N,,"BASELINE, ANY DAY PRIOR TO FIRST DOSE",0,2001,-8,DURING/AFTER
NIDA-CTN-0002,MH,02_000549,SCREENING,27,14,NEUROLOGICAL,N,,"BASELINE, ANY DAY PRIOR TO FIRST DOSE",0,2001,-8,BEFORE
NIDA-CTN-0002,MH,02_000549,SCREENING,28,14,NEUROLOGICAL,N,,"BASELINE, ANY DAY PRIOR TO FIRST DOSE",0,2001,-8,DURING/AFTER
NIDA-CTN-0002,MH,02_000549,SCREENING,33,17,OTHER,Y,,"BASELINE, ANY DAY PRIOR TO FIRST DOSE",0,2001,-8,BEFORE
NIDA-CTN-0002,MH,02_000549,SCREENING,34,17,OTHER,Y,,"BASELINE, ANY DAY PRIOR TO FIRST DOSE",0,2001,-8,DURING/AFTER
NIDA-CTN-0002,MH,02_000549,SCREENING,25,13,PSYCHIATRIC,N,,"BASELINE, ANY DAY PRIOR TO FIRST DOSE",0,2001,-8,BEFORE
NIDA-CTN-0002,MH,02_000549,SCREENING,26,13,PSYCHIATRIC,N,,"BASELINE, ANY DAY PRIOR TO FIRST DOSE",0,2001,-8,DURING/AFTER
NIDA-CTN-0002,MH,02_000549,SCREENING,7,4,RESPIRATORY,N,,"BASELINE, ANY DAY PRIOR TO FIRST DOSE",0,2001,-8,BEFORE
NIDA-CTN-0002,MH,02_000549,SCREENING,8,4,RESPIRATORY,N,,"BASELINE, ANY DAY PRIOR TO FIRST DOSE",0,2001,-8,DURING/AFTER
NIDA-CTN-0002,MH,02_000549,SCREENING,29,15,SEIZURE,N,,"BASELINE, ANY DAY PRIOR TO FIRST DOSE",0,2001,-8,BEFORE
NIDA-CTN-0002,MH,02_000549,SCREENING,30,15,SEIZURE,N,,"BASELINE, ANY DAY PRIOR TO FIRST DOSE",0,2001,-8,DURING/AFTER
NIDA-CTN-0002,MH,02_000549,SCREENING,13,7,SYMPTOMS OF TB,N,,"BASELINE, ANY DAY PRIOR TO FIRST DOSE",0,2001,-8,BEFORE
NIDA-CTN-0002,MH,02_000549,SCREENING,14,7,SYMPTOMS OF TB,N,,"BASELINE, ANY DAY PRIOR TO FIRST DOSE",0,2001,-8,DURING/AFTER
NIDA-CTN-0002,MH,02_000549,SCREENING,9,5,TB SKIN TEST POSITIVE,N,,"BASELINE, ANY DAY PRIOR TO FIRST DOSE",0,2001,-8,BEFORE
NIDA-CTN-0002,MH,02_000549,SCREENING,10,5,TB SKIN TEST POSITIVE,N,,"BASELINE, ANY DAY PRIOR TO FIRST DOSE",0,2001,-8,DURING/AFTER
NIDA-CTN-0002,MH,02_000549,SCREENING,11,6,X-RAY POSITIVE FOR TB,N,,"BASELINE, ANY DAY PRIOR TO FIRST DOSE",0,2001,-8,BEFORE
NIDA-CTN-0002,MH,02_000549,SCREENING,12,6,X-RAY POSITIVE FOR TB,N,,"BASELINE, ANY DAY PRIOR TO FIRST DOSE",0,2001,-8,DURING/AFTER
NIDA-CTN-0002,MH,02_000852,SCREENING,31,16,ALLERGIES,Y,,"BASELINE, ANY DAY PRIOR TO FIRST DOSE",0,2002,1,BEFORE
NIDA-CTN-0002,MH,02_000852,SCREENING,32,16,ALLERGIES,Y,,"BASELINE, ANY DAY PRIOR TO FIRST DOSE",0,2002,1,DURING/AFTER
NIDA-CTN-0002,MH,02_000852,SCREENING,5,3,CARDIOVASCULAR,N,,"BASELINE, ANY DAY PRIOR TO FIRST DOSE",0,2002,1,BEFORE
NIDA-CTN-0002,MH,02_000852,SCREENING,6,3,CARDIOVASCULAR,N,,"BASELINE, ANY DAY PRIOR TO FIRST DOSE",0,2002,1,DURING/AFTER
NIDA-CTN-0002,MH,02_000852,SCREENING,1,1,DERMATOLOGICAL,N,,"BASELINE, ANY DAY PRIOR TO FIRST DOSE",0,2002,1,BEFORE
NIDA-CTN-0002,MH,02_000852,SCREENING,2,1,DERMATOLOGICAL,N,,"BASELINE, ANY DAY PRIOR TO FIRST DOSE",0,2002,1,DURING/AFTER
NIDA-CTN-0002,MH,02_000852,SCREENING,23,12,ENDOCRINE,N,,"BASELINE, ANY DAY PRIOR TO FIRST DOSE",0,2002,1,BEFORE
NIDA-CTN-0002,MH,02_000852,SCREENING,24,12,ENDOCRINE,N,,"BASELINE, ANY DAY PRIOR TO FIRST DOSE",0,2002,1,DURING/AFTER
NIDA-CTN-0002,MH,02_000852,SCREENING,3,2,"EYES, EARS, NOSE, AND THROAT",N,,"BASELINE, ANY DAY PRIOR TO FIRST DOSE",0,2002,1,BEFORE
NIDA-CTN-0002,MH,02_000852,SCREENING,4,2,"EYES, EARS, NOSE, AND THROAT",N,,"BASELINE, ANY DAY PRIOR TO FIRST DOSE",0,2002,1,DURING/AFTER
NIDA-CTN-0002,MH,02_000852,SCREENING,17,9,GASTROINTESTINAL,N,,"BASELINE, ANY DAY PRIOR TO FIRST DOSE",0,2002,1,BEFORE
NIDA-CTN-0002,MH,02_000852,SCREENING,18,9,GASTROINTESTINAL,N,,"BASELINE, ANY DAY PRIOR TO FIRST DOSE",0,2002,1,DURING/AFTER
NIDA-CTN-0002,MH,02_000852,SCREENING,21,11,GENITOURINARY,N,,"BASELINE, ANY DAY PRIOR TO FIRST DOSE",0,2002,1,BEFORE
NIDA-CTN-0002,MH,02_000852,SCREENING,22,11,GENITOURINARY,N,,"BASELINE, ANY DAY PRIOR TO FIRST DOSE",0,2002,1,DURING/AFTER
NIDA-CTN-0002,MH,02_000852,SCREENING,19,10,HEPATIC,Y,,"BASELINE, ANY DAY PRIOR TO FIRST DOSE",0,2002,1,BEFORE
NIDA-CTN-0002,MH,02_000852,SCREENING,20,10,HEPATIC,Y,,"BASELINE, ANY DAY PRIOR TO FIRST DOSE",0,2002,1,DURING/AFTER
NIDA-CTN-0002,MH,02_000852,SCREENING,15,8,MUSCULOSKELETAL,N,,"BASELINE, ANY DAY PRIOR TO FIRST DOSE",0,2002,1,BEFORE
NIDA-CTN-0002,MH,02_000852,SCREENING,16,8,MUSCULOSKELETAL,N,,"BASELINE, ANY DAY PRIOR TO FIRST DOSE",0,2002,1,DURING/AFTER
NIDA-CTN-0002,MH,02_000852,SCREENING,27,14,NEUROLOGICAL,N,,"BASELINE, ANY DAY PRIOR TO FIRST DOSE",0,2002,1,BEFORE
NIDA-CTN-0002,MH,02_000852,SCREENING,28,14,NEUROLOGICAL,N,,"BASELINE, ANY DAY PRIOR TO FIRST DOSE",0,2002,1,DURING/AFTER
NIDA-CTN-0002,MH,02_000852,SCREENING,33,17,OTHER,N,,"BASELINE, ANY DAY PRIOR TO FIRST DOSE",0,2002,1,BEFORE
NIDA-CTN-0002,MH,02_000852,SCREENING,34,17,OTHER,N,,"BASELINE, ANY DAY PRIOR TO FIRST DOSE",0,2002,1,DURING/AFTER
NIDA-CTN-0002,MH,02_000852,SCREENING,25,13,PSYCHIATRIC,N,,"BASELINE, ANY DAY PRIOR TO FIRST DOSE",0,2002,1,BEFORE
NIDA-CTN-0002,MH,02_000852,SCREENING,26,13,PSYCHIATRIC,N,,"BASELINE, ANY DAY PRIOR TO FIRST DOSE",0,2002,1,DURING/AFTER
NIDA-CTN-0002,MH,02_000852,SCREENING,7,4,RESPIRATORY,N,,"BASELINE, ANY DAY PRIOR TO FIRST DOSE",0,2002,1,BEFORE
NIDA-CTN-0002,MH,02_000852,SCREENING,8,4,RESPIRATORY,N,,"BASELINE, ANY DAY PRIOR TO FIRST DOSE",0,2002,1,DURING/AFTER
NIDA-CTN-0002,MH,02_000852,SCREENING,29,15,SEIZURE,N,,"BASELINE, ANY DAY PRIOR TO FIRST DOSE",0,2002,1,BEFORE
NIDA-CTN-0002,MH,02_000852,SCREENING,30,15,SEIZURE,N,,"BASELINE, ANY DAY PRIOR TO FIRST DOSE",0,2002,1,DURING/AFTER
NIDA-CTN-0002,MH,02_000852,SCREENING,13,7,SYMPTOMS OF TB,N,,"BASELINE, ANY DAY PRIOR TO FIRST DOSE",0,2002,1,BEFORE
NIDA-CTN-0002,MH,02_000852,SCREENING,14,7,SYMPTOMS OF TB,N,,"BASELINE, ANY DAY PRIOR TO FIRST DOSE",0,2002,1,DURING/AFTER
NIDA-CTN-0002,MH,02_000852,SCREENING,9,5,TB SKIN TEST POSITIVE,N,,"BASELINE, ANY DAY PRIOR TO FIRST DOSE",0,2002,1,BEFORE
NIDA-CTN-0002,MH,02_000852,SCREENING,10,5,TB SKIN TEST POSITIVE,N,,"BASELINE, ANY DAY PRIOR TO FIRST DOSE",0,2002,1,DURING/AFTER
NIDA-CTN-0002,MH,02_000852,SCREENING,11,6,X-RAY POSITIVE FOR TB,N,,"BASELINE, ANY DAY PRIOR TO FIRST DOSE",0,2002,1,BEFORE
NIDA-CTN-0002,MH,02_000852,SCREENING,12,6,X-RAY POSITIVE FOR TB,N,,"BASELINE, ANY DAY PRIOR TO FIRST DOSE",0,2002,1,DURING/AFTER
NIDA-CTN-0002,MH,02_002365,SCREENING,30,16,ALLERGIES,N,,"BASELINE, ANY DAY PRIOR TO FIRST DOSE",0,2001,1,BEFORE
NIDA-CTN-0002,MH,02_002365,SCREENING,31,16,ALLERGIES,N,,"BASELINE, ANY DAY PRIOR TO FIRST DOSE",0,2001,1,DURING/AFTER
NIDA-CTN-0002,MH,02_002365,SCREENING,5,3,CARDIOVASCULAR,N,,"BASELINE, ANY DAY PRIOR TO FIRST DOSE",0,2001,1,BEFORE
NIDA-CTN-0002,MH,02_002365,SCREENING,6,3,CARDIOVASCULAR,N,,"BASELINE, ANY DAY PRIOR TO FIRST DOSE",0,2001,1,DURING/AFTER
NIDA-CTN-0002,MH,02_002365,SCREENING,1,1,DERMATOLOGICAL,N,,"BASELINE, ANY DAY PRIOR TO FIRST DOSE",0,2001,1,BEFORE
NIDA-CTN-0002,MH,02_002365,SCREENING,2,1,DERMATOLOGICAL,N,,"BASELINE, ANY DAY PRIOR TO FIRST DOSE",0,2001,1,DURING/AFTER
NIDA-CTN-0002,MH,02_002365,SCREENING,22,12,ENDOCRINE,N,,"BASELINE, ANY DAY PRIOR TO FIRST DOSE",0,2001,1,BEFORE
NIDA-CTN-0002,MH,02_002365,SCREENING,23,12,ENDOCRINE,N,,"BASELINE, ANY DAY PRIOR TO FIRST DOSE",0,2001,1,DURING/AFTER
NIDA-CTN-0002,MH,02_002365,SCREENING,3,2,"EYES, EARS, NOSE, AND THROAT",Y,,"BASELINE, ANY DAY PRIOR TO FIRST DOSE",0,2001,1,BEFORE
NIDA-CTN-0002,MH,02_002365,SCREENING,4,2,"EYES, EARS, NOSE, AND THROAT",Y,,"BASELINE, ANY DAY PRIOR TO FIRST DOSE",0,2001,1,DURING/AFTER
NIDA-CTN-0002,MH,02_002365,SCREENING,17,9,GASTROINTESTINAL,N,,"BASELINE, ANY DAY PRIOR TO FIRST DOSE",0,2001,1,BEFORE
NIDA-CTN-0002,MH,02_002365,SCREENING,18,9,GASTROINTESTINAL,N,,"BASELINE, ANY DAY PRIOR TO FIRST DOSE",0,2001,1,DURING/AFTER
NIDA-CTN-0002,MH,02_002365,SCREENING,20,11,GENITOURINARY,Y,,"BASELINE, ANY DAY PRIOR TO FIRST DOSE",0,2001,1,BEFORE
NIDA-CTN-0002,MH,02_002365,SCREENING,21,11,GENITOURINARY,N,,"BASELINE, ANY DAY PRIOR TO FIRST DOSE",0,2001,1,DURING/AFTER
NIDA-CTN-0002,MH,02_002365,SCREENING,19,10,HEPATIC,Y,,"BASELINE, ANY DAY PRIOR TO FIRST DOSE",0,2001,1,BEFORE
NIDA-CTN-0002,MH,02_002365,SCREENING,15,8,MUSCULOSKELETAL,N,,"BASELINE, ANY DAY PRIOR TO FIRST DOSE",0,2001,1,BEFORE
NIDA-CTN-0002,MH,02_002365,SCREENING,16,8,MUSCULOSKELETAL,N,,"BASELINE, ANY DAY PRIOR TO FIRST DOSE",0,2001,1,DURING/AFTER
NIDA-CTN-0002,MH,02_002365,SCREENING,26,14,NEUROLOGICAL,N,,"BASELINE, ANY DAY PRIOR TO FIRST DOSE",0,2001,1,BEFORE
NIDA-CTN-0002,MH,02_002365,SCREENING,27,14,NEUROLOGICAL,N,,"BASELINE, ANY DAY PRIOR TO FIRST DOSE",0,2001,1,DURING/AFTER
NIDA-CTN-0002,MH,02_002365,SCREENING,32,17,OTHER,N,,"BASELINE, ANY DAY PRIOR TO FIRST DOSE",0,2001,1,BEFORE
NIDA-CTN-0002,MH,02_002365,SCREENING,33,17,OTHER,N,,"BASELINE, ANY DAY PRIOR TO FIRST DOSE",0,2001,1,DURING/AFTER
NIDA-CTN-0002,MH,02_002365,SCREENING,24,13,PSYCHIATRIC,N,,"BASELINE, ANY DAY PRIOR TO FIRST DOSE",0,2001,1,BEFORE
NIDA-CTN-0002,MH,02_002365,SCREENING,25,13,PSYCHIATRIC,N,,"BASELINE, ANY DAY PRIOR TO FIRST DOSE",0,2001,1,DURING/AFTER
NIDA-CTN-0002,MH,02_002365,SCREENING,7,4,RESPIRATORY,N,,"BASELINE, ANY DAY PRIOR TO FIRST DOSE",0,2001,1,BEFORE
NIDA-CTN-0002,MH,02_002365,SCREENING,8,4,RESPIRATORY,N,,"BASELINE, ANY DAY PRIOR TO FIRST DOSE",0,2001,1,DURING/AFTER
NIDA-CTN-0002,MH,02_002365,SCREENING,28,15,SEIZURE,N,,"BASELINE, ANY DAY PRIOR TO FIRST DOSE",0,2001,1,BEFORE
NIDA-CTN-0002,MH,02_002365,SCREENING,29,15,SEIZURE,N,,"BASELINE, ANY DAY PRIOR TO FIRST DOSE",0,2001,1,DURING/AFTER
NIDA-CTN-0002,MH,02_002365,SCREENING,13,7,SYMPTOMS OF TB,N,,"BASELINE, ANY DAY PRIOR TO FIRST DOSE",0,2001,1,BEFORE
NIDA-CTN-0002,MH,02_002365,SCREENING,14,7,SYMPTOMS OF TB,N,,"BASELINE, ANY DAY PRIOR TO FIRST DOSE",0,2001,1,DURING/AFTER
NIDA-CTN-0002,MH,02_002365,SCREENING,9,5,TB SKIN TEST POSITIVE,Y,,"BASELINE, ANY DAY PRIOR TO FIRST DOSE",0,2001,1,BEFORE
NIDA-CTN-0002,MH,02_002365,SCREENING,10,5,TB SKIN TEST POSITIVE,N,,"BASELINE, ANY DAY PRIOR TO FIRST DOSE",0,2001,1,DURING/AFTER
NIDA-CTN-0002,MH,02_002365,SCREENING,11,6,X-RAY POSITIVE FOR TB,Y,,"BASELINE, ANY DAY PRIOR TO FIRST DOSE",0,2001,1,BEFORE
NIDA-CTN-0002,MH,02_002365,SCREENING,12,6,X-RAY POSITIVE FOR TB,N,,"BASELINE, ANY DAY PRIOR TO FIRST DOSE",0,2001,1,DURING/AFTER
NIDA-CTN-0002,MH,02_002504,SCREENING,31,16,ALLERGIES,N,,"BASELINE, ANY DAY PRIOR TO FIRST DOSE",0,2001,-1,BEFORE
NIDA-CTN-0002,MH,02_002504,SCREENING,32,16,ALLERGIES,N,,"BASELINE, ANY DAY PRIOR TO FIRST DOSE",0,2001,-1,DURING/AFTER
NIDA-CTN-0002,MH,02_002504,SCREENING,5,3,CARDIOVASCULAR,N,,"BASELINE, ANY DAY PRIOR TO FIRST DOSE",0,2001,-1,BEFORE
NIDA-CTN-0002,MH,02_002504,SCREENING,6,3,CARDIOVASCULAR,N,,"BASELINE, ANY DAY PRIOR TO FIRST DOSE",0,2001,-1,DURING/AFTER
NIDA-CTN-0002,MH,02_002504,SCREENING,1,1,DERMATOLOGICAL,N,,"BASELINE, ANY DAY PRIOR TO FIRST DOSE",0,2001,-1,BEFORE
NIDA-CTN-0002,MH,02_002504,SCREENING,2,1,DERMATOLOGICAL,N,,"BASELINE, ANY DAY PRIOR TO FIRST DOSE",0,2001,-1,DURING/AFTER
NIDA-CTN-0002,MH,02_002504,SCREENING,23,12,ENDOCRINE,N,,"BASELINE, ANY DAY PRIOR TO FIRST DOSE",0,2001,-1,BEFORE
NIDA-CTN-0002,MH,02_002504,SCREENING,24,12,ENDOCRINE,N,,"BASELINE, ANY DAY PRIOR TO FIRST DOSE",0,2001,-1,DURING/AFTER
NIDA-CTN-0002,MH,02_002504,SCREENING,3,2,"EYES, EARS, NOSE, AND THROAT",N,,"BASELINE, ANY DAY PRIOR TO FIRST DOSE",0,2001,-1,BEFORE
NIDA-CTN-0002,MH,02_002504,SCREENING,4,2,"EYES, EARS, NOSE, AND THROAT",N,,"BASELINE, ANY DAY PRIOR TO FIRST DOSE",0,2001,-1,DURING/AFTER
NIDA-CTN-0002,MH,02_002504,SCREENING,17,9,GASTROINTESTINAL,N,,"BASELINE, ANY DAY PRIOR TO FIRST DOSE",0,2001,-1,BEFORE
NIDA-CTN-0002,MH,02_002504,SCREENING,18,9,GASTROINTESTINAL,N,,"BASELINE, ANY DAY PRIOR TO FIRST DOSE",0,2001,-1,DURING/AFTER
NIDA-CTN-0002,MH,02_002504,SCREENING,21,11,GENITOURINARY,N,,"BASELINE, ANY DAY PRIOR TO FIRST DOSE",0,2001,-1,BEFORE
NIDA-CTN-0002,MH,02_002504,SCREENING,22,11,GENITOURINARY,N,,"BASELINE, ANY DAY PRIOR TO FIRST DOSE",0,2001,-1,DURING/AFTER
NIDA-CTN-0002,MH,02_002504,SCREENING,19,10,HEPATIC,N,,"BASELINE, ANY DAY PRIOR TO FIRST DOSE",0,2001,-1,BEFORE
NIDA-CTN-0002,MH,02_002504,SCREENING,20,10,HEPATIC,N,,"BASELINE, ANY DAY PRIOR TO FIRST DOSE",0,2001,-1,DURING/AFTER
NIDA-CTN-0002,MH,02_002504,SCREENING,15,8,MUSCULOSKELETAL,Y,,"BASELINE, ANY DAY PRIOR TO FIRST DOSE",0,2001,-1,BEFORE
NIDA-CTN-0002,MH,02_002504,SCREENING,16,8,MUSCULOSKELETAL,Y,,"BASELINE, ANY DAY PRIOR TO FIRST DOSE",0,2001,-1,DURING/AFTER
NIDA-CTN-0002,MH,02_002504,SCREENING,27,14,NEUROLOGICAL,N,,"BASELINE, ANY DAY PRIOR TO FIRST DOSE",0,2001,-1,BEFORE
NIDA-CTN-0002,MH,02_002504,SCREENING,28,14,NEUROLOGICAL,N,,"BASELINE, ANY DAY PRIOR TO FIRST DOSE",0,2001,-1,DURING/AFTER
NIDA-CTN-0002,MH,02_002504,SCREENING,33,17,OTHER,Y,,"BASELINE, ANY DAY PRIOR TO FIRST DOSE",0,2001,-1,BEFORE
NIDA-CTN-0002,MH,02_002504,SCREENING,34,17,OTHER,Y,,"BASELINE, ANY DAY PRIOR TO FIRST DOSE",0,2001,-1,DURING/AFTER
NIDA-CTN-0002,MH,02_002504,SCREENING,25,13,PSYCHIATRIC,N,,"BASELINE, ANY DAY PRIOR TO FIRST DOSE",0,2001,-1,BEFORE
NIDA-CTN-0002,MH,02_002504,SCREENING,26,13,PSYCHIATRIC,N,,"BASELINE, ANY DAY PRIOR TO FIRST DOSE",0,2001,-1,DURING/AFTER
NIDA-CTN-0002,MH,02_002504,SCREENING,7,4,RESPIRATORY,Y,,"BASELINE, ANY DAY PRIOR TO FIRST DOSE",0,2001,-1,BEFORE
NIDA-CTN-0002,MH,02_002504,SCREENING,8,4,RESPIRATORY,N,,"BASELINE, ANY DAY PRIOR TO FIRST DOSE",0,2001,-1,DURING/AFTER
NIDA-CTN-0002,MH,02_002504,SCREENING,29,15,SEIZURE,N,,"BASELINE, ANY DAY PRIOR TO FIRST DOSE",0,2001,-1,BEFORE
NIDA-CTN-0002,MH,02_002504,SCREENING,30,15,SEIZURE,N,,"BASELINE, ANY DAY PRIOR TO FIRST DOSE",0,2001,-1,DURING/AFTER
NIDA-CTN-0002,MH,02_002504,SCREENING,13,7,SYMPTOMS OF TB,N,,"BASELINE, ANY DAY PRIOR TO FIRST DOSE",0,2001,-1,BEFORE
NIDA-CTN-0002,MH,02_002504,SCREENING,14,7,SYMPTOMS OF TB,N,,"BASELINE, ANY DAY PRIOR TO FIRST DOSE",0,2001,-1,DURING/AFTER
NIDA-CTN-0002,MH,02_002504,SCREENING,9,5,TB SKIN TEST POSITIVE,N,,"BASELINE, ANY DAY PRIOR TO FIRST DOSE",0,2001,-1,BEFORE
NIDA-CTN-0002,MH,02_002504,SCREENING,10,5,TB SKIN TEST POSITIVE,N,,"BASELINE, ANY DAY PRIOR TO FIRST DOSE",0,2001,-1,DURING/AFTER
NIDA-CTN-0002,MH,02_002504,SCREENING,11,6,X-RAY POSITIVE FOR TB,N,,"BASELINE, ANY DAY PRIOR TO FIRST DOSE",0,2001,-1,BEFORE
NIDA-CTN-0002,MH,02_002504,SCREENING,12,6,X-RAY POSITIVE FOR TB,N,,"BASELINE, ANY DAY PRIOR TO FIRST DOSE",0,2001,-1,DURING/AFTER
NIDA-CTN-0002,MH,02_002823,SCREENING,18,16,ALLERGIES,Y,,"BASELINE, ANY DAY PRIOR TO FIRST DOSE",0,2001," ",BEFORE
NIDA-CTN-0002,MH,02_002823,SCREENING,19,16,ALLERGIES,Y,,"BASELINE, ANY DAY PRIOR TO FIRST DOSE",0,2001," ",DURING/AFTER
NIDA-CTN-0002,MH,02_002823,SCREENING,3,3,CARDIOVASCULAR,N,,"BASELINE, ANY DAY PRIOR TO FIRST DOSE",0,2001," ",BEFORE
NIDA-CTN-0002,MH,02_002823,SCREENING,1,1,DERMATOLOGICAL,N,,"BASELINE, ANY DAY PRIOR TO FIRST DOSE",0,2001," ",BEFORE
NIDA-CTN-0002,MH,02_002823,SCREENING,14,12,ENDOCRINE,N,,"BASELINE, ANY DAY PRIOR TO FIRST DOSE",0,2001," ",BEFORE
NIDA-CTN-0002,MH,02_002823,SCREENING,2,2,"EYES, EARS, NOSE, AND THROAT",N,,"BASELINE, ANY DAY PRIOR TO FIRST DOSE",0,2001," ",BEFORE
NIDA-CTN-0002,MH,02_002823,SCREENING,11,9,GASTROINTESTINAL,N,,"BASELINE, ANY DAY PRIOR TO FIRST DOSE",0,2001," ",BEFORE
NIDA-CTN-0002,MH,02_002823,SCREENING,13,11,GENITOURINARY,N,,"BASELINE, ANY DAY PRIOR TO FIRST DOSE",0,2001," ",BEFORE
NIDA-CTN-0002,MH,02_002823,SCREENING,12,10,HEPATIC,N,,"BASELINE, ANY DAY PRIOR TO FIRST DOSE",0,2001," ",BEFORE
NIDA-CTN-0002,MH,02_002823,SCREENING,10,8,MUSCULOSKELETAL,N,,"BASELINE, ANY DAY PRIOR TO FIRST DOSE",0,2001," ",BEFORE
NIDA-CTN-0002,MH,02_002823,SCREENING,16,14,NEUROLOGICAL,N,,"BASELINE, ANY DAY PRIOR TO FIRST DOSE",0,2001," ",BEFORE
NIDA-CTN-0002,MH,02_002823,SCREENING,20,17,OTHER,Y,,"BASELINE, ANY DAY PRIOR TO FIRST DOSE",0,2001," ",BEFORE
NIDA-CTN-0002,MH,02_002823,SCREENING,21,17,OTHER,N,,"BASELINE, ANY DAY PRIOR TO FIRST DOSE",0,2001," ",DURING/AFTER
NIDA-CTN-0002,MH,02_002823,SCREENING,15,13,PSYCHIATRIC,N,,"BASELINE, ANY DAY PRIOR TO FIRST DOSE",0,2001," ",BEFORE
NIDA-CTN-0002,MH,02_002823,SCREENING,4,4,RESPIRATORY,N,,"BASELINE, ANY DAY PRIOR TO FIRST DOSE",0,2001," ",BEFORE
NIDA-CTN-0002,MH,02_002823,SCREENING,17,15,SEIZURE,N,,"BASELINE, ANY DAY PRIOR TO FIRST DOSE",0,2001," ",BEFORE
NIDA-CTN-0002,MH,02_002823,SCREENING,9,7,SYMPTOMS OF TB,N,,"BASELINE, ANY DAY PRIOR TO FIRST DOSE",0,2001," ",BEFORE
NIDA-CTN-0002,MH,02_002823,SCREENING,5,5,TB SKIN TEST POSITIVE,Y,,"BASELINE, ANY DAY PRIOR TO FIRST DOSE",0,2001," ",BEFORE
NIDA-CTN-0002,MH,02_002823,SCREENING,6,5,TB SKIN TEST POSITIVE,N,,"BASELINE, ANY DAY PRIOR TO FIRST DOSE",0,2001," ",DURING/AFTER
NIDA-CTN-0002,MH,02_002823,SCREENING,7,6,X-RAY POSITIVE FOR TB,N,,"BASELINE, ANY DAY PRIOR TO FIRST DOSE",0,2001," ",BEFORE
NIDA-CTN-0002,MH,02_002823,SCREENING,8,6,X-RAY POSITIVE FOR TB,N,,"BASELINE, ANY DAY PRIOR TO FIRST DOSE",0,2001," ",DURING/AFTER
NIDA-CTN-0002,MH,02_003272,SCREENING,30,16,ALLERGIES,Y,,"BASELINE, ANY DAY PRIOR TO FIRST DOSE",0,2001,-1,BEFORE
NIDA-CTN-0002,MH,02_003272,SCREENING,31,16,ALLERGIES,Y,,"BASELINE, ANY DAY PRIOR TO FIRST DOSE",0,2001,-1,DURING/AFTER
NIDA-CTN-0002,MH,02_003272,SCREENING,5,3,CARDIOVASCULAR,Y,,"BASELINE, ANY DAY PRIOR TO FIRST DOSE",0,2001,-1,BEFORE
NIDA-CTN-0002,MH,02_003272,SCREENING,6,3,CARDIOVASCULAR,N,,"BASELINE, ANY DAY PRIOR TO FIRST DOSE",0,2001,-1,DURING/AFTER
NIDA-CTN-0002,MH,02_003272,SCREENING,1,1,DERMATOLOGICAL,N,,"BASELINE, ANY DAY PRIOR TO FIRST DOSE",0,2001,-1,BEFORE
NIDA-CTN-0002,MH,02_003272,SCREENING,2,1,DERMATOLOGICAL,N,,"BASELINE, ANY DAY PRIOR TO FIRST DOSE",0,2001,-1,DURING/AFTER
NIDA-CTN-0002,MH,02_003272,SCREENING,22,12,ENDOCRINE,N,,"BASELINE, ANY DAY PRIOR TO FIRST DOSE",0,2001,-1,BEFORE
NIDA-CTN-0002,MH,02_003272,SCREENING,23,12,ENDOCRINE,N,,"BASELINE, ANY DAY PRIOR TO FIRST DOSE",0,2001,-1,DURING/AFTER
NIDA-CTN-0002,MH,02_003272,SCREENING,3,2,"EYES, EARS, NOSE, AND THROAT",Y,,"BASELINE, ANY DAY PRIOR TO FIRST DOSE",0,2001,-1,BEFORE
NIDA-CTN-0002,MH,02_003272,SCREENING,4,2,"EYES, EARS, NOSE, AND THROAT",N,,"BASELINE, ANY DAY PRIOR TO FIRST DOSE",0,2001,-1,DURING/AFTER
NIDA-CTN-0002,MH,02_003272,SCREENING,16,9,GASTROINTESTINAL,N,,"BASELINE, ANY DAY PRIOR TO FIRST DOSE",0,2001,-1,BEFORE
NIDA-CTN-0002,MH,02_003272,SCREENING,17,9,GASTROINTESTINAL,N,,"BASELINE, ANY DAY PRIOR TO FIRST DOSE",0,2001,-1,DURING/AFTER
NIDA-CTN-0002,MH,02_003272,SCREENING,20,11,GENITOURINARY,Y,,"BASELINE, ANY DAY PRIOR TO FIRST DOSE",0,2001,-1,BEFORE
NIDA-CTN-0002,MH,02_003272,SCREENING,21,11,GENITOURINARY,N,,"BASELINE, ANY DAY PRIOR TO FIRST DOSE",0,2001,-1,DURING/AFTER
NIDA-CTN-0002,MH,02_003272,SCREENING,18,10,HEPATIC,N,,"BASELINE, ANY DAY PRIOR TO FIRST DOSE",0,2001,-1,BEFORE
NIDA-CTN-0002,MH,02_003272,SCREENING,19,10,HEPATIC,N,,"BASELINE, ANY DAY PRIOR TO FIRST DOSE",0,2001,-1,DURING/AFTER
NIDA-CTN-0002,MH,02_003272,SCREENING,14,8,MUSCULOSKELETAL,N,,"BASELINE, ANY DAY PRIOR TO FIRST DOSE",0,2001,-1,BEFORE
NIDA-CTN-0002,MH,02_003272,SCREENING,15,8,MUSCULOSKELETAL,N,,"BASELINE, ANY DAY PRIOR TO FIRST DOSE",0,2001,-1,DURING/AFTER
NIDA-CTN-0002,MH,02_003272,SCREENING,26,14,NEUROLOGICAL,Y,,"BASELINE, ANY DAY PRIOR TO FIRST DOSE",0,2001,-1,BEFORE
NIDA-CTN-0002,MH,02_003272,SCREENING,27,14,NEUROLOGICAL,Y,,"BASELINE, ANY DAY PRIOR TO FIRST DOSE",0,2001,-1,DURING/AFTER
NIDA-CTN-0002,MH,02_003272,SCREENING,32,17,OTHER,N,,"BASELINE, ANY DAY PRIOR TO FIRST DOSE",0,2001,-1,BEFORE
NIDA-CTN-0002,MH,02_003272,SCREENING,33,17,OTHER,N,,"BASELINE, ANY DAY PRIOR TO FIRST DOSE",0,2001,-1,DURING/AFTER
NIDA-CTN-0002,MH,02_003272,SCREENING,24,13,PSYCHIATRIC,Y,,"BASELINE, ANY DAY PRIOR TO FIRST DOSE",0,2001,-1,BEFORE
NIDA-CTN-0002,MH,02_003272,SCREENING,25,13,PSYCHIATRIC,Y,,"BASELINE, ANY DAY PRIOR TO FIRST DOSE",0,2001,-1,DURING/AFTER
NIDA-CTN-0002,MH,02_003272,SCREENING,7,4,RESPIRATORY,N,,"BASELINE, ANY DAY PRIOR TO FIRST DOSE",0,2001,-1,BEFORE
NIDA-CTN-0002,MH,02_003272,SCREENING,8,4,RESPIRATORY,N,,"BASELINE, ANY DAY PRIOR TO FIRST DOSE",0,2001,-1,DURING/AFTER
NIDA-CTN-0002,MH,02_003272,SCREENING,28,15,SEIZURE,N,,"BASELINE, ANY DAY PRIOR TO FIRST DOSE",0,2001,-1,BEFORE
NIDA-CTN-0002,MH,02_003272,SCREENING,29,15,SEIZURE,N,,"BASELINE, ANY DAY PRIOR TO FIRST DOSE",0,2001,-1,DURING/AFTER
NIDA-CTN-0002,MH,02_003272,SCREENING,12,7,SYMPTOMS OF TB,N,,"BASELINE, ANY DAY PRIOR TO FIRST DOSE",0,2001,-1,BEFORE
NIDA-CTN-0002,MH,02_003272,SCREENING,13,7,SYMPTOMS OF TB,N,,"BASELINE, ANY DAY PRIOR TO FIRST DOSE",0,2001,-1,DURING/AFTER
NIDA-CTN-0002,MH,02_003272,SCREENING,9,5,TB SKIN TEST POSITIVE,N,,"BASELINE, ANY DAY PRIOR TO FIRST DOSE",0,2001,-1,BEFORE
NIDA-CTN-0002,MH,02_003272,SCREENING,10,5,TB SKIN TEST POSITIVE,N,,"BASELINE, ANY DAY PRIOR TO FIRST DOSE",0,2001,-1,DURING/AFTER
NIDA-CTN-0002,MH,02_003272,SCREENING,11,6,X-RAY POSITIVE FOR TB,,NOT DONE,"BASELINE, ANY DAY PRIOR TO FIRST DOSE",0,2001,-1,
NIDA-CTN-0002,MH,02_003614,SCREENING,31,16,ALLERGIES,N,,"BASELINE, ANY DAY PRIOR TO FIRST DOSE",0,2002,1,BEFORE
NIDA-CTN-0002,MH,02_003614,SCREENING,32,16,ALLERGIES,N,,"BASELINE, ANY DAY PRIOR TO FIRST DOSE",0,2002,1,DURING/AFTER
NIDA-CTN-0002,MH,02_003614,SCREENING,5,3,CARDIOVASCULAR,N,,"BASELINE, ANY DAY PRIOR TO FIRST DOSE",0,2002,1,BEFORE
NIDA-CTN-0002,MH,02_003614,SCREENING,6,3,CARDIOVASCULAR,N,,"BASELINE, ANY DAY PRIOR TO FIRST DOSE",0,2002,1,DURING/AFTER
NIDA-CTN-0002,MH,02_003614,SCREENING,1,1,DERMATOLOGICAL,N,,"BASELINE, ANY DAY PRIOR TO FIRST DOSE",0,2002,1,BEFORE
NIDA-CTN-0002,MH,02_003614,SCREENING,2,1,DERMATOLOGICAL,N,,"BASELINE, ANY DAY PRIOR TO FIRST DOSE",0,2002,1,DURING/AFTER
NIDA-CTN-0002,MH,02_003614,SCREENING,23,12,ENDOCRINE,N,,"BASELINE, ANY DAY PRIOR TO FIRST DOSE",0,2002,1,BEFORE
NIDA-CTN-0002,MH,02_003614,SCREENING,24,12,ENDOCRINE,N,,"BASELINE, ANY DAY PRIOR TO FIRST DOSE",0,2002,1,DURING/AFTER
NIDA-CTN-0002,MH,02_003614,SCREENING,3,2,"EYES, EARS, NOSE, AND THROAT",N,,"BASELINE, ANY DAY PRIOR TO FIRST DOSE",0,2002,1,BEFORE
NIDA-CTN-0002,MH,02_003614,SCREENING,4,2,"EYES, EARS, NOSE, AND THROAT",N,,"BASELINE, ANY DAY PRIOR TO FIRST DOSE",0,2002,1,DURING/AFTER
NIDA-CTN-0002,MH,02_003614,SCREENING,17,9,GASTROINTESTINAL,N,,"BASELINE, ANY DAY PRIOR TO FIRST DOSE",0,2002,1,BEFORE
NIDA-CTN-0002,MH,02_003614,SCREENING,18,9,GASTROINTESTINAL,N,,"BASELINE, ANY DAY PRIOR TO FIRST DOSE",0,2002,1,DURING/AFTER
NIDA-CTN-0002,MH,02_003614,SCREENING,21,11,GENITOURINARY,N,,"BASELINE, ANY DAY PRIOR TO FIRST DOSE",0,2002,1,BEFORE
NIDA-CTN-0002,MH,02_003614,SCREENING,22,11,GENITOURINARY,N,,"BASELINE, ANY DAY PRIOR TO FIRST DOSE",0,2002,1,DURING/AFTER
NIDA-CTN-0002,MH,02_003614,SCREENING,19,10,HEPATIC,N,,"BASELINE, ANY DAY PRIOR TO FIRST DOSE",0,2002,1,BEFORE
NIDA-CTN-0002,MH,02_003614,SCREENING,20,10,HEPATIC,N,,"BASELINE, ANY DAY PRIOR TO FIRST DOSE",0,2002,1,DURING/AFTER
NIDA-CTN-0002,MH,02_003614,SCREENING,15,8,MUSCULOSKELETAL,N,,"BASELINE, ANY DAY PRIOR TO FIRST DOSE",0,2002,1,BEFORE
NIDA-CTN-0002,MH,02_003614,SCREENING,16,8,MUSCULOSKELETAL,N,,"BASELINE, ANY DAY PRIOR TO FIRST DOSE",0,2002,1,DURING/AFTER
NIDA-CTN-0002,MH,02_003614,SCREENING,27,14,NEUROLOGICAL,N,,"BASELINE, ANY DAY PRIOR TO FIRST DOSE",0,2002,1,BEFORE
NIDA-CTN-0002,MH,02_003614,SCREENING,28,14,NEUROLOGICAL,N,,"BASELINE, ANY DAY PRIOR TO FIRST DOSE",0,2002,1,DURING/AFTER
NIDA-CTN-0002,MH,02_003614,SCREENING,33,17,OTHER,,NOT DONE,"BASELINE, ANY DAY PRIOR TO FIRST DOSE",0,2002,1,
NIDA-CTN-0002,MH,02_003614,SCREENING,25,13,PSYCHIATRIC,N,,"BASELINE, ANY DAY PRIOR TO FIRST DOSE",0,2002,1,BEFORE
NIDA-CTN-0002,MH,02_003614,SCREENING,26,13,PSYCHIATRIC,N,,"BASELINE, ANY DAY PRIOR TO FIRST DOSE",0,2002,1,DURING/AFTER
NIDA-CTN-0002,MH,02_003614,SCREENING,7,4,RESPIRATORY,N,,"BASELINE, ANY DAY PRIOR TO FIRST DOSE",0,2002,1,BEFORE
NIDA-CTN-0002,MH,02_003614,SCREENING,8,4,RESPIRATORY,N,,"BASELINE, ANY DAY PRIOR TO FIRST DOSE",0,2002,1,DURING/AFTER
NIDA-CTN-0002,MH,02_003614,SCREENING,29,15,SEIZURE,N,,"BASELINE, ANY DAY PRIOR TO FIRST DOSE",0,2002,1,BEFORE
NIDA-CTN-0002,MH,02_003614,SCREENING,30,15,SEIZURE,N,,"BASELINE, ANY DAY PRIOR TO FIRST DOSE",0,2002,1,DURING/AFTER
NIDA-CTN-0002,MH,02_003614,SCREENING,13,7,SYMPTOMS OF TB,N,,"BASELINE, ANY DAY PRIOR TO FIRST DOSE",0,2002,1,BEFORE
NIDA-CTN-0002,MH,02_003614,SCREENING,14,7,SYMPTOMS OF TB,N,,"BASELINE, ANY DAY PRIOR TO FIRST DOSE",0,2002,1,DURING/AFTER
NIDA-CTN-0002,MH,02_003614,SCREENING,9,5,TB SKIN TEST POSITIVE,N,,"BASELINE, ANY DAY PRIOR TO FIRST DOSE",0,2002,1,BEFORE
NIDA-CTN-0002,MH,02_003614,SCREENING,10,5,TB SKIN TEST POSITIVE,N,,"BASELINE, ANY DAY PRIOR TO FIRST DOSE",0,2002,1,DURING/AFTER
NIDA-CTN-0002,MH,02_003614,SCREENING,11,6,X-RAY POSITIVE FOR TB,N,,"BASELINE, ANY DAY PRIOR TO FIRST DOSE",0,2002,1,BEFORE
NIDA-CTN-0002,MH,02_003614,SCREENING,12,6,X-RAY POSITIVE FOR TB,N,,"BASELINE, ANY DAY PRIOR TO FIRST DOSE",0,2002,1,DURING/AFTER
NIDA-CTN-0002,MH,02_004194,SCREENING,30,16,ALLERGIES,Y,,"BASELINE, ANY DAY PRIOR TO FIRST DOSE",0,2001,1,BEFORE
NIDA-CTN-0002,MH,02_004194,SCREENING,31,16,ALLERGIES,Y,,"BASELINE, ANY DAY PRIOR TO FIRST DOSE",0,2001,1,DURING/AFTER
NIDA-CTN-0002,MH,02_004194,SCREENING,5,3,CARDIOVASCULAR,N,,"BASELINE, ANY DAY PRIOR TO FIRST DOSE",0,2001,1,DURING/AFTER
NIDA-CTN-0002,MH,02_004194,SCREENING,1,1,DERMATOLOGICAL,N,,"BASELINE, ANY DAY PRIOR TO FIRST DOSE",0,2001,1,BEFORE
NIDA-CTN-0002,MH,02_004194,SCREENING,2,1,DERMATOLOGICAL,N,,"BASELINE, ANY DAY PRIOR TO FIRST DOSE",0,2001,1,DURING/AFTER
NIDA-CTN-0002,MH,02_004194,SCREENING,22,12,ENDOCRINE,N,,"BASELINE, ANY DAY PRIOR TO FIRST DOSE",0,2001,1,BEFORE
NIDA-CTN-0002,MH,02_004194,SCREENING,23,12,ENDOCRINE,N,,"BASELINE, ANY DAY PRIOR TO FIRST DOSE",0,2001,1,DURING/AFTER
NIDA-CTN-0002,MH,02_004194,SCREENING,3,2,"EYES, EARS, NOSE, AND THROAT",N,,"BASELINE, ANY DAY PRIOR TO FIRST DOSE",0,2001,1,BEFORE
NIDA-CTN-0002,MH,02_004194,SCREENING,4,2,"EYES, EARS, NOSE, AND THROAT",N,,"BASELINE, ANY DAY PRIOR TO FIRST DOSE",0,2001,1,DURING/AFTER
NIDA-CTN-0002,MH,02_004194,SCREENING,16,9,GASTROINTESTINAL,N,,"BASELINE, ANY DAY PRIOR TO FIRST DOSE",0,2001,1,BEFORE
NIDA-CTN-0002,MH,02_004194,SCREENING,17,9,GASTROINTESTINAL,N,,"BASELINE, ANY DAY PRIOR TO FIRST DOSE",0,2001,1,DURING/AFTER
NIDA-CTN-0002,MH,02_004194,SCREENING,20,11,GENITOURINARY,N,,"BASELINE, ANY DAY PRIOR TO FIRST DOSE",0,2001,1,BEFORE
NIDA-CTN-0002,MH,02_004194,SCREENING,21,11,GENITOURINARY,N,,"BASELINE, ANY DAY PRIOR TO FIRST DOSE",0,2001,1,DURING/AFTER
NIDA-CTN-0002,MH,02_004194,SCREENING,18,10,HEPATIC,N,,"BASELINE, ANY DAY PRIOR TO FIRST DOSE",0,2001,1,BEFORE
NIDA-CTN-0002,MH,02_004194,SCREENING,19,10,HEPATIC,N,,"BASELINE, ANY DAY PRIOR TO FIRST DOSE",0,2001,1,DURING/AFTER
NIDA-CTN-0002,MH,02_004194,SCREENING,14,8,MUSCULOSKELETAL,N,,"BASELINE, ANY DAY PRIOR TO FIRST DOSE",0,2001,1,BEFORE
NIDA-CTN-0002,MH,02_004194,SCREENING,15,8,MUSCULOSKELETAL,N,,"BASELINE, ANY DAY PRIOR TO FIRST DOSE",0,2001,1,DURING/AFTER
NIDA-CTN-0002,MH,02_004194,SCREENING,26,14,NEUROLOGICAL,N,,"BASELINE, ANY DAY PRIOR TO FIRST DOSE",0,2001,1,BEFORE
NIDA-CTN-0002,MH,02_004194,SCREENING,27,14,NEUROLOGICAL,N,,"BASELINE, ANY DAY PRIOR TO FIRST DOSE",0,2001,1,DURING/AFTER
NIDA-CTN-0002,MH,02_004194,SCREENING,32,17,OTHER,N,,"BASELINE, ANY DAY PRIOR TO FIRST DOSE",0,2001,1,BEFORE
NIDA-CTN-0002,MH,02_004194,SCREENING,33,17,OTHER,N,,"BASELINE, ANY DAY PRIOR TO FIRST DOSE",0,2001,1,DURING/AFTER
NIDA-CTN-0002,MH,02_004194,SCREENING,24,13,PSYCHIATRIC,N,,"BASELINE, ANY DAY PRIOR TO FIRST DOSE",0,2001,1,BEFORE
NIDA-CTN-0002,MH,02_004194,SCREENING,25,13,PSYCHIATRIC,N,,"BASELINE, ANY DAY PRIOR TO FIRST DOSE",0,2001,1,DURING/AFTER
NIDA-CTN-0002,MH,02_004194,SCREENING,6,4,RESPIRATORY,Y,,"BASELINE, ANY DAY PRIOR TO FIRST DOSE",0,2001,1,BEFORE
NIDA-CTN-0002,MH,02_004194,SCREENING,7,4,RESPIRATORY,Y,,"BASELINE, ANY DAY PRIOR TO FIRST DOSE",0,2001,1,DURING/AFTER
NIDA-CTN-0002,MH,02_004194,SCREENING,28,15,SEIZURE,N,,"BASELINE, ANY DAY PRIOR TO FIRST DOSE",0,2001,1,BEFORE
NIDA-CTN-0002,MH,02_004194,SCREENING,29,15,SEIZURE,N,,"BASELINE, ANY DAY PRIOR TO FIRST DOSE",0,2001,1,DURING/AFTER
NIDA-CTN-0002,MH,02_004194,SCREENING,12,7,SYMPTOMS OF TB,N,,"BASELINE, ANY DAY PRIOR TO FIRST DOSE",0,2001,1,BEFORE
NIDA-CTN-0002,MH,02_004194,SCREENING,13,7,SYMPTOMS OF TB,N,,"BASELINE, ANY DAY PRIOR TO FIRST DOSE",0,2001,1,DURING/AFTER
NIDA-CTN-0002,MH,02_004194,SCREENING,8,5,TB SKIN TEST POSITIVE,N,,"BASELINE, ANY DAY PRIOR TO FIRST DOSE",0,2001,1,BEFORE
NIDA-CTN-0002,MH,02_004194,SCREENING,9,5,TB SKIN TEST POSITIVE,N,,"BASELINE, ANY DAY PRIOR TO FIRST DOSE",0,2001,1,DURING/AFTER
NIDA-CTN-0002,MH,02_004194,SCREENING,10,6,X-RAY POSITIVE FOR TB,N,,"BASELINE, ANY DAY PRIOR TO FIRST DOSE",0,2001,1,BEFORE
NIDA-CTN-0002,MH,02_004194,SCREENING,11,6,X-RAY POSITIVE FOR TB,N,,"BASELINE, ANY DAY PRIOR TO FIRST DOSE",0,2001,1,DURING/AFTER
NIDA-CTN-0002,MH,02_004450,SCREENING,31,16,ALLERGIES,Y,,"BASELINE, ANY DAY PRIOR TO FIRST DOSE",0,2001,1,BEFORE
NIDA-CTN-0002,MH,02_004450,SCREENING,32,16,ALLERGIES,N,,"BASELINE, ANY DAY PRIOR TO FIRST DOSE",0,2001,1,DURING/AFTER
NIDA-CTN-0002,MH,02_004450,SCREENING,5,3,CARDIOVASCULAR,N,,"BASELINE, ANY DAY PRIOR TO FIRST DOSE",0,2001,1,BEFORE
NIDA-CTN-0002,MH,02_004450,SCREENING,6,3,CARDIOVASCULAR,N,,"BASELINE, ANY DAY PRIOR TO FIRST DOSE",0,2001,1,DURING/AFTER
NIDA-CTN-0002,MH,02_004450,SCREENING,1,1,DERMATOLOGICAL,N,,"BASELINE, ANY DAY PRIOR TO FIRST DOSE",0,2001,1,BEFORE
NIDA-CTN-0002,MH,02_004450,SCREENING,2,1,DERMATOLOGICAL,N,,"BASELINE, ANY DAY PRIOR TO FIRST DOSE",0,2001,1,DURING/AFTER
NIDA-CTN-0002,MH,02_004450,SCREENING,23,12,ENDOCRINE,N,,"BASELINE, ANY DAY PRIOR TO FIRST DOSE",0,2001,1,BEFORE
NIDA-CTN-0002,MH,02_004450,SCREENING,24,12,ENDOCRINE,N,,"BASELINE, ANY DAY PRIOR TO FIRST DOSE",0,2001,1,DURING/AFTER
NIDA-CTN-0002,MH,02_004450,SCREENING,3,2,"EYES, EARS, NOSE, AND THROAT",N,,"BASELINE, ANY DAY PRIOR TO FIRST DOSE",0,2001,1,BEFORE
NIDA-CTN-0002,MH,02_004450,SCREENING,4,2,"EYES, EARS, NOSE, AND THROAT",N,,"BASELINE, ANY DAY PRIOR TO FIRST DOSE",0,2001,1,DURING/AFTER
NIDA-CTN-0002,MH,02_004450,SCREENING,17,9,GASTROINTESTINAL,N,,"BASELINE, ANY DAY PRIOR TO FIRST DOSE",0,2001,1,BEFORE
NIDA-CTN-0002,MH,02_004450,SCREENING,18,9,GASTROINTESTINAL,N,,"BASELINE, ANY DAY PRIOR TO FIRST DOSE",0,2001,1,DURING/AFTER
NIDA-CTN-0002,MH,02_004450,SCREENING,21,11,GENITOURINARY,N,,"BASELINE, ANY DAY PRIOR TO FIRST DOSE",0,2001,1,BEFORE
NIDA-CTN-0002,MH,02_004450,SCREENING,22,11,GENITOURINARY,N,,"BASELINE, ANY DAY PRIOR TO FIRST DOSE",0,2001,1,DURING/AFTER
NIDA-CTN-0002,MH,02_004450,SCREENING,19,10,HEPATIC,N,,"BASELINE, ANY DAY PRIOR TO FIRST DOSE",0,2001,1,BEFORE
NIDA-CTN-0002,MH,02_004450,SCREENING,20,10,HEPATIC,N,,"BASELINE, ANY DAY PRIOR TO FIRST DOSE",0,2001,1,DURING/AFTER
NIDA-CTN-0002,MH,02_004450,SCREENING,15,8,MUSCULOSKELETAL,N,,"BASELINE, ANY DAY PRIOR TO FIRST DOSE",0,2001,1,BEFORE
NIDA-CTN-0002,MH,02_004450,SCREENING,16,8,MUSCULOSKELETAL,N,,"BASELINE, ANY DAY PRIOR TO FIRST DOSE",0,2001,1,DURING/AFTER
NIDA-CTN-0002,MH,02_004450,SCREENING,27,14,NEUROLOGICAL,N,,"BASELINE, ANY DAY PRIOR TO FIRST DOSE",0,2001,1,BEFORE
NIDA-CTN-0002,MH,02_004450,SCREENING,28,14,NEUROLOGICAL,N,,"BASELINE, ANY DAY PRIOR TO FIRST DOSE",0,2001,1,DURING/AFTER
NIDA-CTN-0002,MH,02_004450,SCREENING,33,17,OTHER,N,,"BASELINE, ANY DAY PRIOR TO FIRST DOSE",0,2001,1,DURING/AFTER
NIDA-CTN-0002,MH,02_004450,SCREENING,25,13,PSYCHIATRIC,N,,"BASELINE, ANY DAY PRIOR TO FIRST DOSE",0,2001,1,BEFORE
NIDA-CTN-0002,MH,02_004450,SCREENING,26,13,PSYCHIATRIC,N,,"BASELINE, ANY DAY PRIOR TO FIRST DOSE",0,2001,1,DURING/AFTER
NIDA-CTN-0002,MH,02_004450,SCREENING,7,4,RESPIRATORY,N,,"BASELINE, ANY DAY PRIOR TO FIRST DOSE",0,2001,1,BEFORE
NIDA-CTN-0002,MH,02_004450,SCREENING,8,4,RESPIRATORY,N,,"BASELINE, ANY DAY PRIOR TO FIRST DOSE",0,2001,1,DURING/AFTER
NIDA-CTN-0002,MH,02_004450,SCREENING,29,15,SEIZURE,N,,"BASELINE, ANY DAY PRIOR TO FIRST DOSE",0,2001,1,BEFORE
NIDA-CTN-0002,MH,02_004450,SCREENING,30,15,SEIZURE,N,,"BASELINE, ANY DAY PRIOR TO FIRST DOSE",0,2001,1,DURING/AFTER
NIDA-CTN-0002,MH,02_004450,SCREENING,13,7,SYMPTOMS OF TB,N,,"BASELINE, ANY DAY PRIOR TO FIRST DOSE",0,2001,1,BEFORE
NIDA-CTN-0002,MH,02_004450,SCREENING,14,7,SYMPTOMS OF TB,N,,"BASELINE, ANY DAY PRIOR TO FIRST DOSE",0,2001,1,DURING/AFTER
NIDA-CTN-0002,MH,02_004450,SCREENING,9,5,TB SKIN TEST POSITIVE,N,,"BASELINE, ANY DAY PRIOR TO FIRST DOSE",0,2001,1,BEFORE
NIDA-CTN-0002,MH,02_004450,SCREENING,10,5,TB SKIN TEST POSITIVE,N,,"BASELINE, ANY DAY PRIOR TO FIRST DOSE",0,2001,1,DURING/AFTER
NIDA-CTN-0002,MH,02_004450,SCREENING,11,6,X-RAY POSITIVE FOR TB,N,,"BASELINE, ANY DAY PRIOR TO FIRST DOSE",0,2001,1,BEFORE
NIDA-CTN-0002,MH,02_004450,SCREENING,12,6,X-RAY POSITIVE FOR TB,N,,"BASELINE, ANY DAY PRIOR TO FIRST DOSE",0,2001,1,DURING/AFTER
NIDA-CTN-0002,MH,02_004483,ACTIVE,31,16,ALLERGIES,Y,,"BASELINE, ANY DAY PRIOR TO FIRST DOSE",0,2001,1,BEFORE
NIDA-CTN-0002,MH,02_004483,ACTIVE,32,16,ALLERGIES,Y,,"BASELINE, ANY DAY PRIOR TO FIRST DOSE",0,2001,1,DURING/AFTER
NIDA-CTN-0002,MH,02_004483,ACTIVE,5,3,CARDIOVASCULAR,Y,,"BASELINE, ANY DAY PRIOR TO FIRST DOSE",0,2001,1,BEFORE
NIDA-CTN-0002,MH,02_004483,ACTIVE,6,3,CARDIOVASCULAR,N,,"BASELINE, ANY DAY PRIOR TO FIRST DOSE",0,2001,1,DURING/AFTER
NIDA-CTN-0002,MH,02_004483,ACTIVE,1,1,DERMATOLOGICAL,N,,"BASELINE, ANY DAY PRIOR TO FIRST DOSE",0,2001,1,BEFORE
NIDA-CTN-0002,MH,02_004483,ACTIVE,2,1,DERMATOLOGICAL,N,,"BASELINE, ANY DAY PRIOR TO FIRST DOSE",0,2001,1,DURING/AFTER
NIDA-CTN-0002,MH,02_004483,ACTIVE,23,12,ENDOCRINE,N,,"BASELINE, ANY DAY PRIOR TO FIRST DOSE",0,2001,1,BEFORE
NIDA-CTN-0002,MH,02_004483,ACTIVE,24,12,ENDOCRINE,N,,"BASELINE, ANY DAY PRIOR TO FIRST DOSE",0,2001,1,DURING/AFTER
NIDA-CTN-0002,MH,02_004483,ACTIVE,3,2,"EYES, EARS, NOSE, AND THROAT",N,,"BASELINE, ANY DAY PRIOR TO FIRST DOSE",0,2001,1,BEFORE
NIDA-CTN-0002,MH,02_004483,ACTIVE,4,2,"EYES, EARS, NOSE, AND THROAT",N,,"BASELINE, ANY DAY PRIOR TO FIRST DOSE",0,2001,1,DURING/AFTER
NIDA-CTN-0002,MH,02_004483,ACTIVE,17,9,GASTROINTESTINAL,N,,"BASELINE, ANY DAY PRIOR TO FIRST DOSE",0,2001,1,BEFORE
NIDA-CTN-0002,MH,02_004483,ACTIVE,18,9,GASTROINTESTINAL,N,,"BASELINE, ANY DAY PRIOR TO FIRST DOSE",0,2001,1,DURING/AFTER
NIDA-CTN-0002,MH,02_004483,ACTIVE,21,11,GENITOURINARY,N,,"BASELINE, ANY DAY PRIOR TO FIRST DOSE",0,2001,1,BEFORE
NIDA-CTN-0002,MH,02_004483,ACTIVE,22,11,GENITOURINARY,N,,"BASELINE, ANY DAY PRIOR TO FIRST DOSE",0,2001,1,DURING/AFTER
NIDA-CTN-0002,MH,02_004483,ACTIVE,19,10,HEPATIC,N,,"BASELINE, ANY DAY PRIOR TO FIRST DOSE",0,2001,1,BEFORE
NIDA-CTN-0002,MH,02_004483,ACTIVE,20,10,HEPATIC,N,,"BASELINE, ANY DAY PRIOR TO FIRST DOSE",0,2001,1,DURING/AFTER
NIDA-CTN-0002,MH,02_004483,ACTIVE,15,8,MUSCULOSKELETAL,Y,,"BASELINE, ANY DAY PRIOR TO FIRST DOSE",0,2001,1,BEFORE
NIDA-CTN-0002,MH,02_004483,ACTIVE,16,8,MUSCULOSKELETAL,N,,"BASELINE, ANY DAY PRIOR TO FIRST DOSE",0,2001,1,DURING/AFTER
NIDA-CTN-0002,MH,02_004483,ACTIVE,27,14,NEUROLOGICAL,N,,"BASELINE, ANY DAY PRIOR TO FIRST DOSE",0,2001,1,BEFORE
NIDA-CTN-0002,MH,02_004483,ACTIVE,28,14,NEUROLOGICAL,N,,"BASELINE, ANY DAY PRIOR TO FIRST DOSE",0,2001,1,DURING/AFTER
NIDA-CTN-0002,MH,02_004483,ACTIVE,33,17,OTHER,N,,"BASELINE, ANY DAY PRIOR TO FIRST DOSE",0,2001,1,BEFORE
NIDA-CTN-0002,MH,02_004483,ACTIVE,34,17,OTHER,N,,"BASELINE, ANY DAY PRIOR TO FIRST DOSE",0,2001,1,DURING/AFTER
NIDA-CTN-0002,MH,02_004483,ACTIVE,25,13,PSYCHIATRIC,Y,,"BASELINE, ANY DAY PRIOR TO FIRST DOSE",0,2001,1,BEFORE
NIDA-CTN-0002,MH,02_004483,ACTIVE,26,13,PSYCHIATRIC,N,,"BASELINE, ANY DAY PRIOR TO FIRST DOSE",0,2001,1,DURING/AFTER
NIDA-CTN-0002,MH,02_004483,ACTIVE,7,4,RESPIRATORY,N,,"BASELINE, ANY DAY PRIOR TO FIRST DOSE",0,2001,1,BEFORE
NIDA-CTN-0002,MH,02_004483,ACTIVE,8,4,RESPIRATORY,N,,"BASELINE, ANY DAY PRIOR TO FIRST DOSE",0,2001,1,DURING/AFTER
NIDA-CTN-0002,MH,02_004483,ACTIVE,29,15,SEIZURE,N,,"BASELINE, ANY DAY PRIOR TO FIRST DOSE",0,2001,1,BEFORE
NIDA-CTN-0002,MH,02_004483,ACTIVE,30,15,SEIZURE,N,,"BASELINE, ANY DAY PRIOR TO FIRST DOSE",0,2001,1,DURING/AFTER
NIDA-CTN-0002,MH,02_004483,ACTIVE,13,7,SYMPTOMS OF TB,N,,"BASELINE, ANY DAY PRIOR TO FIRST DOSE",0,2001,1,BEFORE
NIDA-CTN-0002,MH,02_004483,ACTIVE,14,7,SYMPTOMS OF TB,N,,"BASELINE, ANY DAY PRIOR TO FIRST DOSE",0,2001,1,DURING/AFTER
NIDA-CTN-0002,MH,02_004483,ACTIVE,9,5,TB SKIN TEST POSITIVE,N,,"BASELINE, ANY DAY PRIOR TO FIRST DOSE",0,2001,1,BEFORE
NIDA-CTN-0002,MH,02_004483,ACTIVE,10,5,TB SKIN TEST POSITIVE,N,,"BASELINE, ANY DAY PRIOR TO FIRST DOSE",0,2001,1,DURING/AFTER
NIDA-CTN-0002,MH,02_004483,ACTIVE,11,6,X-RAY POSITIVE FOR TB,N,,"BASELINE, ANY DAY PRIOR TO FIRST DOSE",0,2001,1,BEFORE
NIDA-CTN-0002,MH,02_004483,ACTIVE,12,6,X-RAY POSITIVE FOR TB,N,,"BASELINE, ANY DAY PRIOR TO FIRST DOSE",0,2001,1,DURING/AFTER
NIDA-CTN-0002,MH,02_005069,SCREENING,31,16,ALLERGIES,N,,"BASELINE, ANY DAY PRIOR TO FIRST DOSE",0,2001,-1,BEFORE
NIDA-CTN-0002,MH,02_005069,SCREENING,32,16,ALLERGIES,N,,"BASELINE, ANY DAY PRIOR TO FIRST DOSE",0,2001,-1,DURING/AFTER
NIDA-CTN-0002,MH,02_005069,SCREENING,5,3,CARDIOVASCULAR,N,,"BASELINE, ANY DAY PRIOR TO FIRST DOSE",0,2001,-1,BEFORE
NIDA-CTN-0002,MH,02_005069,SCREENING,6,3,CARDIOVASCULAR,N,,"BASELINE, ANY DAY PRIOR TO FIRST DOSE",0,2001,-1,DURING/AFTER
NIDA-CTN-0002,MH,02_005069,SCREENING,1,1,DERMATOLOGICAL,N,,"BASELINE, ANY DAY PRIOR TO FIRST DOSE",0,2001,-1,BEFORE
NIDA-CTN-0002,MH,02_005069,SCREENING,2,1,DERMATOLOGICAL,N,,"BASELINE, ANY DAY PRIOR TO FIRST DOSE",0,2001,-1,DURING/AFTER
NIDA-CTN-0002,MH,02_005069,SCREENING,23,12,ENDOCRINE,N,,"BASELINE, ANY DAY PRIOR TO FIRST DOSE",0,2001,-1,BEFORE
NIDA-CTN-0002,MH,02_005069,SCREENING,24,12,ENDOCRINE,N,,"BASELINE, ANY DAY PRIOR TO FIRST DOSE",0,2001,-1,DURING/AFTER
NIDA-CTN-0002,MH,02_005069,SCREENING,3,2,"EYES, EARS, NOSE, AND THROAT",N,,"BASELINE, ANY DAY PRIOR TO FIRST DOSE",0,2001,-1,BEFORE
NIDA-CTN-0002,MH,02_005069,SCREENING,4,2,"EYES, EARS, NOSE, AND THROAT",N,,"BASELINE, ANY DAY PRIOR TO FIRST DOSE",0,2001,-1,DURING/AFTER
NIDA-CTN-0002,MH,02_005069,SCREENING,17,9,GASTROINTESTINAL,N,,"BASELINE, ANY DAY PRIOR TO FIRST DOSE",0,2001,-1,BEFORE
NIDA-CTN-0002,MH,02_005069,SCREENING,18,9,GASTROINTESTINAL,N,,"BASELINE, ANY DAY PRIOR TO FIRST DOSE",0,2001,-1,DURING/AFTER
NIDA-CTN-0002,MH,02_005069,SCREENING,21,11,GENITOURINARY,N,,"BASELINE, ANY DAY PRIOR TO FIRST DOSE",0,2001,-1,BEFORE
NIDA-CTN-0002,MH,02_005069,SCREENING,22,11,GENITOURINARY,N,,"BASELINE, ANY DAY PRIOR TO FIRST DOSE",0,2001,-1,DURING/AFTER
NIDA-CTN-0002,MH,02_005069,SCREENING,19,10,HEPATIC,N,,"BASELINE, ANY DAY PRIOR TO FIRST DOSE",0,2001,-1,BEFORE
NIDA-CTN-0002,MH,02_005069,SCREENING,20,10,HEPATIC,N,,"BASELINE, ANY DAY PRIOR TO FIRST DOSE",0,2001,-1,DURING/AFTER
NIDA-CTN-0002,MH,02_005069,SCREENING,15,8,MUSCULOSKELETAL,Y,,"BASELINE, ANY DAY PRIOR TO FIRST DOSE",0,2001,-1,BEFORE
NIDA-CTN-0002,MH,02_005069,SCREENING,16,8,MUSCULOSKELETAL,N,,"BASELINE, ANY DAY PRIOR TO FIRST DOSE",0,2001,-1,DURING/AFTER
NIDA-CTN-0002,MH,02_005069,SCREENING,27,14,NEUROLOGICAL,N,,"BASELINE, ANY DAY PRIOR TO FIRST DOSE",0,2001,-1,BEFORE
NIDA-CTN-0002,MH,02_005069,SCREENING,28,14,NEUROLOGICAL,N,,"BASELINE, ANY DAY PRIOR TO FIRST DOSE",0,2001,-1,DURING/AFTER
NIDA-CTN-0002,MH,02_005069,SCREENING,33,17,OTHER,Y,,"BASELINE, ANY DAY PRIOR TO FIRST DOSE",0,2001,-1,BEFORE
NIDA-CTN-0002,MH,02_005069,SCREENING,34,17,OTHER,N,,"BASELINE, ANY DAY PRIOR TO FIRST DOSE",0,2001,-1,DURING/AFTER
NIDA-CTN-0002,MH,02_005069,SCREENING,25,13,PSYCHIATRIC,N,,"BASELINE, ANY DAY PRIOR TO FIRST DOSE",0,2001,-1,BEFORE
NIDA-CTN-0002,MH,02_005069,SCREENING,26,13,PSYCHIATRIC,N,,"BASELINE, ANY DAY PRIOR TO FIRST DOSE",0,2001,-1,DURING/AFTER
NIDA-CTN-0002,MH,02_005069,SCREENING,7,4,RESPIRATORY,N,,"BASELINE, ANY DAY PRIOR TO FIRST DOSE",0,2001,-1,BEFORE
NIDA-CTN-0002,MH,02_005069,SCREENING,8,4,RESPIRATORY,N,,"BASELINE, ANY DAY PRIOR TO FIRST DOSE",0,2001,-1,DURING/AFTER
NIDA-CTN-0002,MH,02_005069,SCREENING,29,15,SEIZURE,N,,"BASELINE, ANY DAY PRIOR TO FIRST DOSE",0,2001,-1,BEFORE
NIDA-CTN-0002,MH,02_005069,SCREENING,30,15,SEIZURE,N,,"BASELINE, ANY DAY PRIOR TO FIRST DOSE",0,2001,-1,DURING/AFTER
NIDA-CTN-0002,MH,02_005069,SCREENING,13,7,SYMPTOMS OF TB,N,,"BASELINE, ANY DAY PRIOR TO FIRST DOSE",0,2001,-1,BEFORE
NIDA-CTN-0002,MH,02_005069,SCREENING,14,7,SYMPTOMS OF TB,N,,"BASELINE, ANY DAY PRIOR TO FIRST DOSE",0,2001,-1,DURING/AFTER
NIDA-CTN-0002,MH,02_005069,SCREENING,9,5,TB SKIN TEST POSITIVE,N,,"BASELINE, ANY DAY PRIOR TO FIRST DOSE",0,2001,-1,BEFORE
NIDA-CTN-0002,MH,02_005069,SCREENING,10,5,TB SKIN TEST POSITIVE,N,,"BASELINE, ANY DAY PRIOR TO FIRST DOSE",0,2001,-1,DURING/AFTER
NIDA-CTN-0002,MH,02_005069,SCREENING,11,6,X-RAY POSITIVE FOR TB,N,,"BASELINE, ANY DAY PRIOR TO FIRST DOSE",0,2001,-1,BEFORE
NIDA-CTN-0002,MH,02_005069,SCREENING,12,6,X-RAY POSITIVE FOR TB,N,,"BASELINE, ANY DAY PRIOR TO FIRST DOSE",0,2001,-1,DURING/AFTER
NIDA-CTN-0002,MH,02_005418,SCREENING,31,16,ALLERGIES,N,,"BASELINE, ANY DAY PRIOR TO FIRST DOSE",0,2001,-1,BEFORE
NIDA-CTN-0002,MH,02_005418,SCREENING,32,16,ALLERGIES,N,,"BASELINE, ANY DAY PRIOR TO FIRST DOSE",0,2001,-1,DURING/AFTER
NIDA-CTN-0002,MH,02_005418,SCREENING,5,3,CARDIOVASCULAR,N,,"BASELINE, ANY DAY PRIOR TO FIRST DOSE",0,2001,-1,BEFORE
NIDA-CTN-0002,MH,02_005418,SCREENING,6,3,CARDIOVASCULAR,N,,"BASELINE, ANY DAY PRIOR TO FIRST DOSE",0,2001,-1,DURING/AFTER
NIDA-CTN-0002,MH,02_005418,SCREENING,1,1,DERMATOLOGICAL,Y,,"BASELINE, ANY DAY PRIOR TO FIRST DOSE",0,2001,-1,BEFORE
NIDA-CTN-0002,MH,02_005418,SCREENING,2,1,DERMATOLOGICAL,Y,,"BASELINE, ANY DAY PRIOR TO FIRST DOSE",0,2001,-1,DURING/AFTER
NIDA-CTN-0002,MH,02_005418,SCREENING,23,12,ENDOCRINE,Y,,"BASELINE, ANY DAY PRIOR TO FIRST DOSE",0,2001,-1,BEFORE
NIDA-CTN-0002,MH,02_005418,SCREENING,24,12,ENDOCRINE,N,,"BASELINE, ANY DAY PRIOR TO FIRST DOSE",0,2001,-1,DURING/AFTER
NIDA-CTN-0002,MH,02_005418,SCREENING,3,2,"EYES, EARS, NOSE, AND THROAT",N,,"BASELINE, ANY DAY PRIOR TO FIRST DOSE",0,2001,-1,BEFORE
NIDA-CTN-0002,MH,02_005418,SCREENING,4,2,"EYES, EARS, NOSE, AND THROAT",N,,"BASELINE, ANY DAY PRIOR TO FIRST DOSE",0,2001,-1,DURING/AFTER
NIDA-CTN-0002,MH,02_005418,SCREENING,17,9,GASTROINTESTINAL,N,,"BASELINE, ANY DAY PRIOR TO FIRST DOSE",0,2001,-1,BEFORE
NIDA-CTN-0002,MH,02_005418,SCREENING,18,9,GASTROINTESTINAL,N,,"BASELINE, ANY DAY PRIOR TO FIRST DOSE",0,2001,-1,DURING/AFTER
NIDA-CTN-0002,MH,02_005418,SCREENING,21,11,GENITOURINARY,N,,"BASELINE, ANY DAY PRIOR TO FIRST DOSE",0,2001,-1,BEFORE
NIDA-CTN-0002,MH,02_005418,SCREENING,22,11,GENITOURINARY,N,,"BASELINE, ANY DAY PRIOR TO FIRST DOSE",0,2001,-1,DURING/AFTER
NIDA-CTN-0002,MH,02_005418,SCREENING,19,10,HEPATIC,Y,,"BASELINE, ANY DAY PRIOR TO FIRST DOSE",0,2001,-1,BEFORE
NIDA-CTN-0002,MH,02_005418,SCREENING,20,10,HEPATIC,Y,,"BASELINE, ANY DAY PRIOR TO FIRST DOSE",0,2001,-1,DURING/AFTER
NIDA-CTN-0002,MH,02_005418,SCREENING,15,8,MUSCULOSKELETAL,N,,"BASELINE, ANY DAY PRIOR TO FIRST DOSE",0,2001,-1,BEFORE
NIDA-CTN-0002,MH,02_005418,SCREENING,16,8,MUSCULOSKELETAL,N,,"BASELINE, ANY DAY PRIOR TO FIRST DOSE",0,2001,-1,DURING/AFTER
NIDA-CTN-0002,MH,02_005418,SCREENING,27,14,NEUROLOGICAL,N,,"BASELINE, ANY DAY PRIOR TO FIRST DOSE",0,2001,-1,BEFORE
NIDA-CTN-0002,MH,02_005418,SCREENING,28,14,NEUROLOGICAL,N,,"BASELINE, ANY DAY PRIOR TO FIRST DOSE",0,2001,-1,DURING/AFTER
NIDA-CTN-0002,MH,02_005418,SCREENING,33,17,OTHER,Y,,"BASELINE, ANY DAY PRIOR TO FIRST DOSE",0,2001,-1,BEFORE
NIDA-CTN-0002,MH,02_005418,SCREENING,34,17,OTHER,Y,,"BASELINE, ANY DAY PRIOR TO FIRST DOSE",0,2001,-1,DURING/AFTER
NIDA-CTN-0002,MH,02_005418,SCREENING,25,13,PSYCHIATRIC,Y,,"BASELINE, ANY DAY PRIOR TO FIRST DOSE",0,2001,-1,BEFORE
NIDA-CTN-0002,MH,02_005418,SCREENING,26,13,PSYCHIATRIC,Y,,"BASELINE, ANY DAY PRIOR TO FIRST DOSE",0,2001,-1,DURING/AFTER
NIDA-CTN-0002,MH,02_005418,SCREENING,7,4,RESPIRATORY,N,,"BASELINE, ANY DAY PRIOR TO FIRST DOSE",0,2001,-1,BEFORE
NIDA-CTN-0002,MH,02_005418,SCREENING,8,4,RESPIRATORY,N,,"BASELINE, ANY DAY PRIOR TO FIRST DOSE",0,2001,-1,DURING/AFTER
NIDA-CTN-0002,MH,02_005418,SCREENING,29,15,SEIZURE,N,,"BASELINE, ANY DAY PRIOR TO FIRST DOSE",0,2001,-1,BEFORE
NIDA-CTN-0002,MH,02_005418,SCREENING,30,15,SEIZURE,N,,"BASELINE, ANY DAY PRIOR TO FIRST DOSE",0,2001,-1,DURING/AFTER
NIDA-CTN-0002,MH,02_005418,SCREENING,13,7,SYMPTOMS OF TB,N,,"BASELINE, ANY DAY PRIOR TO FIRST DOSE",0,2001,-1,BEFORE
NIDA-CTN-0002,MH,02_005418,SCREENING,14,7,SYMPTOMS OF TB,N,,"BASELINE, ANY DAY PRIOR TO FIRST DOSE",0,2001,-1,DURING/AFTER
NIDA-CTN-0002,MH,02_005418,SCREENING,9,5,TB SKIN TEST POSITIVE,N,,"BASELINE, ANY DAY PRIOR TO FIRST DOSE",0,2001,-1,BEFORE
NIDA-CTN-0002,MH,02_005418,SCREENING,10,5,TB SKIN TEST POSITIVE,N,,"BASELINE, ANY DAY PRIOR TO FIRST DOSE",0,2001,-1,DURING/AFTER
NIDA-CTN-0002,MH,02_005418,SCREENING,11,6,X-RAY POSITIVE FOR TB,N,,"BASELINE, ANY DAY PRIOR TO FIRST DOSE",0,2001,-1,BEFORE
NIDA-CTN-0002,MH,02_005418,SCREENING,12,6,X-RAY POSITIVE FOR TB,N,,"BASELINE, ANY DAY PRIOR TO FIRST DOSE",0,2001,-1,DURING/AFTER
NIDA-CTN-0002,MH,02_006479,SCREENING,29,16,ALLERGIES,N,,"BASELINE, ANY DAY PRIOR TO FIRST DOSE",0,2002,-1,BEFORE
NIDA-CTN-0002,MH,02_006479,SCREENING,30,16,ALLERGIES,N,,"BASELINE, ANY DAY PRIOR TO FIRST DOSE",0,2002,-1,DURING/AFTER
NIDA-CTN-0002,MH,02_006479,SCREENING,5,3,CARDIOVASCULAR,N,,"BASELINE, ANY DAY PRIOR TO FIRST DOSE",0,2002,-1,BEFORE
NIDA-CTN-0002,MH,02_006479,SCREENING,6,3,CARDIOVASCULAR,N,,"BASELINE, ANY DAY PRIOR TO FIRST DOSE",0,2002,-1,DURING/AFTER
NIDA-CTN-0002,MH,02_006479,SCREENING,1,1,DERMATOLOGICAL,N,,"BASELINE, ANY DAY PRIOR TO FIRST DOSE",0,2002,-1,BEFORE
NIDA-CTN-0002,MH,02_006479,SCREENING,2,1,DERMATOLOGICAL,N,,"BASELINE, ANY DAY PRIOR TO FIRST DOSE",0,2002,-1,DURING/AFTER
NIDA-CTN-0002,MH,02_006479,SCREENING,21,12,ENDOCRINE,N,,"BASELINE, ANY DAY PRIOR TO FIRST DOSE",0,2002,-1,BEFORE
NIDA-CTN-0002,MH,02_006479,SCREENING,22,12,ENDOCRINE,N,,"BASELINE, ANY DAY PRIOR TO FIRST DOSE",0,2002,-1,DURING/AFTER
NIDA-CTN-0002,MH,02_006479,SCREENING,3,2,"EYES, EARS, NOSE, AND THROAT",Y,,"BASELINE, ANY DAY PRIOR TO FIRST DOSE",0,2002,-1,BEFORE
NIDA-CTN-0002,MH,02_006479,SCREENING,4,2,"EYES, EARS, NOSE, AND THROAT",N,,"BASELINE, ANY DAY PRIOR TO FIRST DOSE",0,2002,-1,DURING/AFTER
NIDA-CTN-0002,MH,02_006479,SCREENING,15,9,GASTROINTESTINAL,N,,"BASELINE, ANY DAY PRIOR TO FIRST DOSE",0,2002,-1,BEFORE
NIDA-CTN-0002,MH,02_006479,SCREENING,16,9,GASTROINTESTINAL,N,,"BASELINE, ANY DAY PRIOR TO FIRST DOSE",0,2002,-1,DURING/AFTER
NIDA-CTN-0002,MH,02_006479,SCREENING,19,11,GENITOURINARY,N,,"BASELINE, ANY DAY PRIOR TO FIRST DOSE",0,2002,-1,BEFORE
NIDA-CTN-0002,MH,02_006479,SCREENING,20,11,GENITOURINARY,N,,"BASELINE, ANY DAY PRIOR TO FIRST DOSE",0,2002,-1,DURING/AFTER
NIDA-CTN-0002,MH,02_006479,SCREENING,17,10,HEPATIC,N,,"BASELINE, ANY DAY PRIOR TO FIRST DOSE",0,2002,-1,BEFORE
NIDA-CTN-0002,MH,02_006479,SCREENING,18,10,HEPATIC,N,,"BASELINE, ANY DAY PRIOR TO FIRST DOSE",0,2002,-1,DURING/AFTER
NIDA-CTN-0002,MH,02_006479,SCREENING,13,8,MUSCULOSKELETAL,Y,,"BASELINE, ANY DAY PRIOR TO FIRST DOSE",0,2002,-1,BEFORE
NIDA-CTN-0002,MH,02_006479,SCREENING,14,8,MUSCULOSKELETAL,N,,"BASELINE, ANY DAY PRIOR TO FIRST DOSE",0,2002,-1,DURING/AFTER
NIDA-CTN-0002,MH,02_006479,SCREENING,25,14,NEUROLOGICAL,N,,"BASELINE, ANY DAY PRIOR TO FIRST DOSE",0,2002,-1,BEFORE
NIDA-CTN-0002,MH,02_006479,SCREENING,26,14,NEUROLOGICAL,N,,"BASELINE, ANY DAY PRIOR TO FIRST DOSE",0,2002,-1,DURING/AFTER
NIDA-CTN-0002,MH,02_006479,SCREENING,31,17,OTHER,N,,"BASELINE, ANY DAY PRIOR TO FIRST DOSE",0,2002,-1,BEFORE
NIDA-CTN-0002,MH,02_006479,SCREENING,32,17,OTHER,N,,"BASELINE, ANY DAY PRIOR TO FIRST DOSE",0,2002,-1,DURING/AFTER
NIDA-CTN-0002,MH,02_006479,SCREENING,23,13,PSYCHIATRIC,N,,"BASELINE, ANY DAY PRIOR TO FIRST DOSE",0,2002,-1,BEFORE
NIDA-CTN-0002,MH,02_006479,SCREENING,24,13,PSYCHIATRIC,N,,"BASELINE, ANY DAY PRIOR TO FIRST DOSE",0,2002,-1,DURING/AFTER
NIDA-CTN-0002,MH,02_006479,SCREENING,7,4,RESPIRATORY,N,,"BASELINE, ANY DAY PRIOR TO FIRST DOSE",0,2002,-1,BEFORE
NIDA-CTN-0002,MH,02_006479,SCREENING,8,4,RESPIRATORY,N,,"BASELINE, ANY DAY PRIOR TO FIRST DOSE",0,2002,-1,DURING/AFTER
NIDA-CTN-0002,MH,02_006479,SCREENING,27,15,SEIZURE,N,,"BASELINE, ANY DAY PRIOR TO FIRST DOSE",0,2002,-1,BEFORE
NIDA-CTN-0002,MH,02_006479,SCREENING,28,15,SEIZURE,N,,"BASELINE, ANY DAY PRIOR TO FIRST DOSE",0,2002,-1,DURING/AFTER
NIDA-CTN-0002,MH,02_006479,SCREENING,11,7,SYMPTOMS OF TB,N,,"BASELINE, ANY DAY PRIOR TO FIRST DOSE",0,2002,-1,BEFORE
NIDA-CTN-0002,MH,02_006479,SCREENING,12,7,SYMPTOMS OF TB,N,,"BASELINE, ANY DAY PRIOR TO FIRST DOSE",0,2002,-1,DURING/AFTER
NIDA-CTN-0002,MH,02_006479,SCREENING,9,5,TB SKIN TEST POSITIVE,,NOT DONE,"BASELINE, ANY DAY PRIOR TO FIRST DOSE",0,2002,-1,
NIDA-CTN-0002,MH,02_006479,SCREENING,10,6,X-RAY POSITIVE FOR TB,,NOT DONE,"BASELINE, ANY DAY PRIOR TO FIRST DOSE",0,2002,-1,
NIDA-CTN-0002,MH,02_006759,SCREENING,31,16,ALLERGIES,N,,"BASELINE, ANY DAY PRIOR TO FIRST DOSE",0,2001,1,BEFORE
NIDA-CTN-0002,MH,02_006759,SCREENING,32,16,ALLERGIES,N,,"BASELINE, ANY DAY PRIOR TO FIRST DOSE",0,2001,1,DURING/AFTER
NIDA-CTN-0002,MH,02_006759,SCREENING,5,3,CARDIOVASCULAR,N,,"BASELINE, ANY DAY PRIOR TO FIRST DOSE",0,2001,1,BEFORE
NIDA-CTN-0002,MH,02_006759,SCREENING,6,3,CARDIOVASCULAR,N,,"BASELINE, ANY DAY PRIOR TO FIRST DOSE",0,2001,1,DURING/AFTER
NIDA-CTN-0002,MH,02_006759,SCREENING,1,1,DERMATOLOGICAL,N,,"BASELINE, ANY DAY PRIOR TO FIRST DOSE",0,2001,1,BEFORE
NIDA-CTN-0002,MH,02_006759,SCREENING,2,1,DERMATOLOGICAL,N,,"BASELINE, ANY DAY PRIOR TO FIRST DOSE",0,2001,1,DURING/AFTER
NIDA-CTN-0002,MH,02_006759,SCREENING,23,12,ENDOCRINE,N,,"BASELINE, ANY DAY PRIOR TO FIRST DOSE",0,2001,1,BEFORE
NIDA-CTN-0002,MH,02_006759,SCREENING,24,12,ENDOCRINE,N,,"BASELINE, ANY DAY PRIOR TO FIRST DOSE",0,2001,1,DURING/AFTER
NIDA-CTN-0002,MH,02_006759,SCREENING,3,2,"EYES, EARS, NOSE, AND THROAT",N,,"BASELINE, ANY DAY PRIOR TO FIRST DOSE",0,2001,1,BEFORE
NIDA-CTN-0002,MH,02_006759,SCREENING,4,2,"EYES, EARS, NOSE, AND THROAT",N,,"BASELINE, ANY DAY PRIOR TO FIRST DOSE",0,2001,1,DURING/AFTER
NIDA-CTN-0002,MH,02_006759,SCREENING,17,9,GASTROINTESTINAL,N,,"BASELINE, ANY DAY PRIOR TO FIRST DOSE",0,2001,1,BEFORE
NIDA-CTN-0002,MH,02_006759,SCREENING,18,9,GASTROINTESTINAL,N,,"BASELINE, ANY DAY PRIOR TO FIRST DOSE",0,2001,1,DURING/AFTER
NIDA-CTN-0002,MH,02_006759,SCREENING,21,11,GENITOURINARY,N,,"BASELINE, ANY DAY PRIOR TO FIRST DOSE",0,2001,1,BEFORE
NIDA-CTN-0002,MH,02_006759,SCREENING,22,11,GENITOURINARY,N,,"BASELINE, ANY DAY PRIOR TO FIRST DOSE",0,2001,1,DURING/AFTER
NIDA-CTN-0002,MH,02_006759,SCREENING,19,10,HEPATIC,Y,,"BASELINE, ANY DAY PRIOR TO FIRST DOSE",0,2001,1,BEFORE
NIDA-CTN-0002,MH,02_006759,SCREENING,20,10,HEPATIC,N,,"BASELINE, ANY DAY PRIOR TO FIRST DOSE",0,2001,1,DURING/AFTER
NIDA-CTN-0002,MH,02_006759,SCREENING,15,8,MUSCULOSKELETAL,N,,"BASELINE, ANY DAY PRIOR TO FIRST DOSE",0,2001,1,BEFORE
NIDA-CTN-0002,MH,02_006759,SCREENING,16,8,MUSCULOSKELETAL,N,,"BASELINE, ANY DAY PRIOR TO FIRST DOSE",0,2001,1,DURING/AFTER
NIDA-CTN-0002,MH,02_006759,SCREENING,27,14,NEUROLOGICAL,N,,"BASELINE, ANY DAY PRIOR TO FIRST DOSE",0,2001,1,BEFORE
NIDA-CTN-0002,MH,02_006759,SCREENING,28,14,NEUROLOGICAL,N,,"BASELINE, ANY DAY PRIOR TO FIRST DOSE",0,2001,1,DURING/AFTER
NIDA-CTN-0002,MH,02_006759,SCREENING,33,17,OTHER,N,,"BASELINE, ANY DAY PRIOR TO FIRST DOSE",0,2001,1,BEFORE
NIDA-CTN-0002,MH,02_006759,SCREENING,34,17,OTHER,N,,"BASELINE, ANY DAY PRIOR TO FIRST DOSE",0,2001,1,DURING/AFTER
NIDA-CTN-0002,MH,02_006759,SCREENING,25,13,PSYCHIATRIC,N,,"BASELINE, ANY DAY PRIOR TO FIRST DOSE",0,2001,1,BEFORE
NIDA-CTN-0002,MH,02_006759,SCREENING,26,13,PSYCHIATRIC,N,,"BASELINE, ANY DAY PRIOR TO FIRST DOSE",0,2001,1,DURING/AFTER
NIDA-CTN-0002,MH,02_006759,SCREENING,7,4,RESPIRATORY,N,,"BASELINE, ANY DAY PRIOR TO FIRST DOSE",0,2001,1,BEFORE
NIDA-CTN-0002,MH,02_006759,SCREENING,8,4,RESPIRATORY,N,,"BASELINE, ANY DAY PRIOR TO FIRST DOSE",0,2001,1,DURING/AFTER
NIDA-CTN-0002,MH,02_006759,SCREENING,29,15,SEIZURE,N,,"BASELINE, ANY DAY PRIOR TO FIRST DOSE",0,2001,1,BEFORE
NIDA-CTN-0002,MH,02_006759,SCREENING,30,15,SEIZURE,N,,"BASELINE, ANY DAY PRIOR TO FIRST DOSE",0,2001,1,DURING/AFTER
NIDA-CTN-0002,MH,02_006759,SCREENING,13,7,SYMPTOMS OF TB,N,,"BASELINE, ANY DAY PRIOR TO FIRST DOSE",0,2001,1,BEFORE
NIDA-CTN-0002,MH,02_006759,SCREENING,14,7,SYMPTOMS OF TB,N,,"BASELINE, ANY DAY PRIOR TO FIRST DOSE",0,2001,1,DURING/AFTER
NIDA-CTN-0002,MH,02_006759,SCREENING,9,5,TB SKIN TEST POSITIVE,N,,"BASELINE, ANY DAY PRIOR TO FIRST DOSE",0,2001,1,BEFORE
NIDA-CTN-0002,MH,02_006759,SCREENING,10,5,TB SKIN TEST POSITIVE,N,,"BASELINE, ANY DAY PRIOR TO FIRST DOSE",0,2001,1,DURING/AFTER
NIDA-CTN-0002,MH,02_006759,SCREENING,11,6,X-RAY POSITIVE FOR TB,N,,"BASELINE, ANY DAY PRIOR TO FIRST DOSE",0,2001,1,BEFORE
NIDA-CTN-0002,MH,02_006759,SCREENING,12,6,X-RAY POSITIVE FOR TB,N,,"BASELINE, ANY DAY PRIOR TO FIRST DOSE",0,2001,1,DURING/AFTER
NIDA-CTN-0002,MH,02_007189,SCREENING,29,16,ALLERGIES,N,,"BASELINE, ANY DAY PRIOR TO FIRST DOSE",0,2001,1,BEFORE
NIDA-CTN-0002,MH,02_007189,SCREENING,30,16,ALLERGIES,N,,"BASELINE, ANY DAY PRIOR TO FIRST DOSE",0,2001,1,DURING/AFTER
NIDA-CTN-0002,MH,02_007189,SCREENING,5,3,CARDIOVASCULAR,N,,"BASELINE, ANY DAY PRIOR TO FIRST DOSE",0,2001,1,BEFORE
NIDA-CTN-0002,MH,02_007189,SCREENING,6,3,CARDIOVASCULAR,N,,"BASELINE, ANY DAY PRIOR TO FIRST DOSE",0,2001,1,DURING/AFTER
NIDA-CTN-0002,MH,02_007189,SCREENING,1,1,DERMATOLOGICAL,N,,"BASELINE, ANY DAY PRIOR TO FIRST DOSE",0,2001,1,BEFORE
NIDA-CTN-0002,MH,02_007189,SCREENING,2,1,DERMATOLOGICAL,N,,"BASELINE, ANY DAY PRIOR TO FIRST DOSE",0,2001,1,DURING/AFTER
NIDA-CTN-0002,MH,02_007189,SCREENING,21,12,ENDOCRINE,N,,"BASELINE, ANY DAY PRIOR TO FIRST DOSE",0,2001,1,BEFORE
NIDA-CTN-0002,MH,02_007189,SCREENING,22,12,ENDOCRINE,N,,"BASELINE, ANY DAY PRIOR TO FIRST DOSE",0,2001,1,DURING/AFTER
NIDA-CTN-0002,MH,02_007189,SCREENING,3,2,"EYES, EARS, NOSE, AND THROAT",N,,"BASELINE, ANY DAY PRIOR TO FIRST DOSE",0,2001,1,BEFORE
NIDA-CTN-0002,MH,02_007189,SCREENING,4,2,"EYES, EARS, NOSE, AND THROAT",N,,"BASELINE, ANY DAY PRIOR TO FIRST DOSE",0,2001,1,DURING/AFTER
NIDA-CTN-0002,MH,02_007189,SCREENING,15,9,GASTROINTESTINAL,N,,"BASELINE, ANY DAY PRIOR TO FIRST DOSE",0,2001,1,BEFORE
NIDA-CTN-0002,MH,02_007189,SCREENING,16,9,GASTROINTESTINAL,N,,"BASELINE, ANY DAY PRIOR TO FIRST DOSE",0,2001,1,DURING/AFTER
NIDA-CTN-0002,MH,02_007189,SCREENING,19,11,GENITOURINARY,N,,"BASELINE, ANY DAY PRIOR TO FIRST DOSE",0,2001,1,BEFORE
NIDA-CTN-0002,MH,02_007189,SCREENING,20,11,GENITOURINARY,N,,"BASELINE, ANY DAY PRIOR TO FIRST DOSE",0,2001,1,DURING/AFTER
NIDA-CTN-0002,MH,02_007189,SCREENING,17,10,HEPATIC,N,,"BASELINE, ANY DAY PRIOR TO FIRST DOSE",0,2001,1,BEFORE
NIDA-CTN-0002,MH,02_007189,SCREENING,18,10,HEPATIC,N,,"BASELINE, ANY DAY PRIOR TO FIRST DOSE",0,2001,1,DURING/AFTER
NIDA-CTN-0002,MH,02_007189,SCREENING,13,8,MUSCULOSKELETAL,N,,"BASELINE, ANY DAY PRIOR TO FIRST DOSE",0,2001,1,BEFORE
NIDA-CTN-0002,MH,02_007189,SCREENING,14,8,MUSCULOSKELETAL,N,,"BASELINE, ANY DAY PRIOR TO FIRST DOSE",0,2001,1,DURING/AFTER
NIDA-CTN-0002,MH,02_007189,SCREENING,25,14,NEUROLOGICAL,N,,"BASELINE, ANY DAY PRIOR TO FIRST DOSE",0,2001,1,BEFORE
NIDA-CTN-0002,MH,02_007189,SCREENING,26,14,NEUROLOGICAL,N,,"BASELINE, ANY DAY PRIOR TO FIRST DOSE",0,2001,1,DURING/AFTER
NIDA-CTN-0002,MH,02_007189,SCREENING,31,17,OTHER,Y,,"BASELINE, ANY DAY PRIOR TO FIRST DOSE",0,2001,1,BEFORE
NIDA-CTN-0002,MH,02_007189,SCREENING,32,17,OTHER,Y,,"BASELINE, ANY DAY PRIOR TO FIRST DOSE",0,2001,1,DURING/AFTER
NIDA-CTN-0002,MH,02_007189,SCREENING,23,13,PSYCHIATRIC,N,,"BASELINE, ANY DAY PRIOR TO FIRST DOSE",0,2001,1,BEFORE
NIDA-CTN-0002,MH,02_007189,SCREENING,24,13,PSYCHIATRIC,N,,"BASELINE, ANY DAY PRIOR TO FIRST DOSE",0,2001,1,DURING/AFTER
NIDA-CTN-0002,MH,02_007189,SCREENING,7,4,RESPIRATORY,N,,"BASELINE, ANY DAY PRIOR TO FIRST DOSE",0,2001,1,BEFORE
NIDA-CTN-0002,MH,02_007189,SCREENING,8,4,RESPIRATORY,N,,"BASELINE, ANY DAY PRIOR TO FIRST DOSE",0,2001,1,DURING/AFTER
NIDA-CTN-0002,MH,02_007189,SCREENING,27,15,SEIZURE,N,,"BASELINE, ANY DAY PRIOR TO FIRST DOSE",0,2001,1,BEFORE
NIDA-CTN-0002,MH,02_007189,SCREENING,28,15,SEIZURE,N,,"BASELINE, ANY DAY PRIOR TO FIRST DOSE",0,2001,1,DURING/AFTER
NIDA-CTN-0002,MH,02_007189,SCREENING,11,7,SYMPTOMS OF TB,N,,"BASELINE, ANY DAY PRIOR TO FIRST DOSE",0,2001,1,BEFORE
NIDA-CTN-0002,MH,02_007189,SCREENING,12,7,SYMPTOMS OF TB,N,,"BASELINE, ANY DAY PRIOR TO FIRST DOSE",0,2001,1,DURING/AFTER
NIDA-CTN-0002,MH,02_007189,SCREENING,9,5,TB SKIN TEST POSITIVE,,NOT DONE,"BASELINE, ANY DAY PRIOR TO FIRST DOSE",0,2001,1,
NIDA-CTN-0002,MH,02_007189,SCREENING,10,6,X-RAY POSITIVE FOR TB,,NOT DONE,"BASELINE, ANY DAY PRIOR TO FIRST DOSE",0,2001,1,
NIDA-CTN-0002,MH,02_007784,SCREENING,31,16,ALLERGIES,Y,,"BASELINE, ANY DAY PRIOR TO FIRST DOSE",0,2001,-1,BEFORE
NIDA-CTN-0002,MH,02_007784,SCREENING,32,16,ALLERGIES,Y,,"BASELINE, ANY DAY PRIOR TO FIRST DOSE",0,2001,-1,DURING/AFTER
NIDA-CTN-0002,MH,02_007784,SCREENING,5,3,CARDIOVASCULAR,Y,,"BASELINE, ANY DAY PRIOR TO FIRST DOSE",0,2001,-1,BEFORE
NIDA-CTN-0002,MH,02_007784,SCREENING,6,3,CARDIOVASCULAR,Y,,"BASELINE, ANY DAY PRIOR TO FIRST DOSE",0,2001,-1,DURING/AFTER
NIDA-CTN-0002,MH,02_007784,SCREENING,1,1,DERMATOLOGICAL,N,,"BASELINE, ANY DAY PRIOR TO FIRST DOSE",0,2001,-1,BEFORE
NIDA-CTN-0002,MH,02_007784,SCREENING,2,1,DERMATOLOGICAL,Y,,"BASELINE, ANY DAY PRIOR TO FIRST DOSE",0,2001,-1,DURING/AFTER
NIDA-CTN-0002,MH,02_007784,SCREENING,23,12,ENDOCRINE,N,,"BASELINE, ANY DAY PRIOR TO FIRST DOSE",0,2001,-1,BEFORE
NIDA-CTN-0002,MH,02_007784,SCREENING,24,12,ENDOCRINE,N,,"BASELINE, ANY DAY PRIOR TO FIRST DOSE",0,2001,-1,DURING/AFTER
NIDA-CTN-0002,MH,02_007784,SCREENING,3,2,"EYES, EARS, NOSE, AND THROAT",Y,,"BASELINE, ANY DAY PRIOR TO FIRST DOSE",0,2001,-1,BEFORE
NIDA-CTN-0002,MH,02_007784,SCREENING,4,2,"EYES, EARS, NOSE, AND THROAT",N,,"BASELINE, ANY DAY PRIOR TO FIRST DOSE",0,2001,-1,DURING/AFTER
NIDA-CTN-0002,MH,02_007784,SCREENING,17,9,GASTROINTESTINAL,N,,"BASELINE, ANY DAY PRIOR TO FIRST DOSE",0,2001,-1,BEFORE
NIDA-CTN-0002,MH,02_007784,SCREENING,18,9,GASTROINTESTINAL,N,,"BASELINE, ANY DAY PRIOR TO FIRST DOSE",0,2001,-1,DURING/AFTER
NIDA-CTN-0002,MH,02_007784,SCREENING,21,11,GENITOURINARY,Y,,"BASELINE, ANY DAY PRIOR TO FIRST DOSE",0,2001,-1,BEFORE
NIDA-CTN-0002,MH,02_007784,SCREENING,22,11,GENITOURINARY,Y,,"BASELINE, ANY DAY PRIOR TO FIRST DOSE",0,2001,-1,DURING/AFTER
NIDA-CTN-0002,MH,02_007784,SCREENING,19,10,HEPATIC,Y,,"BASELINE, ANY DAY PRIOR TO FIRST DOSE",0,2001,-1,BEFORE
NIDA-CTN-0002,MH,02_007784,SCREENING,20,10,HEPATIC,Y,,"BASELINE, ANY DAY PRIOR TO FIRST DOSE",0,2001,-1,DURING/AFTER
NIDA-CTN-0002,MH,02_007784,SCREENING,15,8,MUSCULOSKELETAL,Y,,"BASELINE, ANY DAY PRIOR TO FIRST DOSE",0,2001,-1,BEFORE
NIDA-CTN-0002,MH,02_007784,SCREENING,16,8,MUSCULOSKELETAL,Y,,"BASELINE, ANY DAY PRIOR TO FIRST DOSE",0,2001,-1,DURING/AFTER
NIDA-CTN-0002,MH,02_007784,SCREENING,27,14,NEUROLOGICAL,N,,"BASELINE, ANY DAY PRIOR TO FIRST DOSE",0,2001,-1,BEFORE
NIDA-CTN-0002,MH,02_007784,SCREENING,28,14,NEUROLOGICAL,N,,"BASELINE, ANY DAY PRIOR TO FIRST DOSE",0,2001,-1,DURING/AFTER
NIDA-CTN-0002,MH,02_007784,SCREENING,33,17,OTHER,Y,,"BASELINE, ANY DAY PRIOR TO FIRST DOSE",0,2001,-1,BEFORE
NIDA-CTN-0002,MH,02_007784,SCREENING,34,17,OTHER,Y,,"BASELINE, ANY DAY PRIOR TO FIRST DOSE",0,2001,-1,DURING/AFTER
NIDA-CTN-0002,MH,02_007784,SCREENING,25,13,PSYCHIATRIC,N,,"BASELINE, ANY DAY PRIOR TO FIRST DOSE",0,2001,-1,BEFORE
NIDA-CTN-0002,MH,02_007784,SCREENING,26,13,PSYCHIATRIC,N,,"BASELINE, ANY DAY PRIOR TO FIRST DOSE",0,2001,-1,DURING/AFTER
NIDA-CTN-0002,MH,02_007784,SCREENING,7,4,RESPIRATORY,Y,,"BASELINE, ANY DAY PRIOR TO FIRST DOSE",0,2001,-1,BEFORE
NIDA-CTN-0002,MH,02_007784,SCREENING,8,4,RESPIRATORY,Y,,"BASELINE, ANY DAY PRIOR TO FIRST DOSE",0,2001,-1,DURING/AFTER
NIDA-CTN-0002,MH,02_007784,SCREENING,29,15,SEIZURE,N,,"BASELINE, ANY DAY PRIOR TO FIRST DOSE",0,2001,-1,BEFORE
NIDA-CTN-0002,MH,02_007784,SCREENING,30,15,SEIZURE,N,,"BASELINE, ANY DAY PRIOR TO FIRST DOSE",0,2001,-1,DURING/AFTER
NIDA-CTN-0002,MH,02_007784,SCREENING,13,7,SYMPTOMS OF TB,Y,,"BASELINE, ANY DAY PRIOR TO FIRST DOSE",0,2001,-1,BEFORE
NIDA-CTN-0002,MH,02_007784,SCREENING,14,7,SYMPTOMS OF TB,N,,"BASELINE, ANY DAY PRIOR TO FIRST DOSE",0,2001,-1,DURING/AFTER
NIDA-CTN-0002,MH,02_007784,SCREENING,9,5,TB SKIN TEST POSITIVE,N,,"BASELINE, ANY DAY PRIOR TO FIRST DOSE",0,2001,-1,BEFORE
NIDA-CTN-0002,MH,02_007784,SCREENING,10,5,TB SKIN TEST POSITIVE,N,,"BASELINE, ANY DAY PRIOR TO FIRST DOSE",0,2001,-1,DURING/AFTER
NIDA-CTN-0002,MH,02_007784,SCREENING,11,6,X-RAY POSITIVE FOR TB,N,,"BASELINE, ANY DAY PRIOR TO FIRST DOSE",0,2001,-1,BEFORE
NIDA-CTN-0002,MH,02_007784,SCREENING,12,6,X-RAY POSITIVE FOR TB,N,,"BASELINE, ANY DAY PRIOR TO FIRST DOSE",0,2001,-1,DURING/AFTER
NIDA-CTN-0002,MH,02_008177,SCREENING,31,16,ALLERGIES,N,,"BASELINE, ANY DAY PRIOR TO FIRST DOSE",0,2001,1,BEFORE
NIDA-CTN-0002,MH,02_008177,SCREENING,32,16,ALLERGIES,N,,"BASELINE, ANY DAY PRIOR TO FIRST DOSE",0,2001,1,DURING/AFTER
NIDA-CTN-0002,MH,02_008177,SCREENING,5,3,CARDIOVASCULAR,N,,"BASELINE, ANY DAY PRIOR TO FIRST DOSE",0,2001,1,BEFORE
NIDA-CTN-0002,MH,02_008177,SCREENING,6,3,CARDIOVASCULAR,N,,"BASELINE, ANY DAY PRIOR TO FIRST DOSE",0,2001,1,DURING/AFTER
NIDA-CTN-0002,MH,02_008177,SCREENING,1,1,DERMATOLOGICAL,N,,"BASELINE, ANY DAY PRIOR TO FIRST DOSE",0,2001,1,BEFORE
NIDA-CTN-0002,MH,02_008177,SCREENING,2,1,DERMATOLOGICAL,N,,"BASELINE, ANY DAY PRIOR TO FIRST DOSE",0,2001,1,DURING/AFTER
NIDA-CTN-0002,MH,02_008177,SCREENING,23,12,ENDOCRINE,N,,"BASELINE, ANY DAY PRIOR TO FIRST DOSE",0,2001,1,BEFORE
NIDA-CTN-0002,MH,02_008177,SCREENING,24,12,ENDOCRINE,N,,"BASELINE, ANY DAY PRIOR TO FIRST DOSE",0,2001,1,DURING/AFTER
NIDA-CTN-0002,MH,02_008177,SCREENING,3,2,"EYES, EARS, NOSE, AND THROAT",N,,"BASELINE, ANY DAY PRIOR TO FIRST DOSE",0,2001,1,BEFORE
NIDA-CTN-0002,MH,02_008177,SCREENING,4,2,"EYES, EARS, NOSE, AND THROAT",N,,"BASELINE, ANY DAY PRIOR TO FIRST DOSE",0,2001,1,DURING/AFTER
NIDA-CTN-0002,MH,02_008177,SCREENING,17,9,GASTROINTESTINAL,N,,"BASELINE, ANY DAY PRIOR TO FIRST DOSE",0,2001,1,BEFORE
NIDA-CTN-0002,MH,02_008177,SCREENING,18,9,GASTROINTESTINAL,N,,"BASELINE, ANY DAY PRIOR TO FIRST DOSE",0,2001,1,DURING/AFTER
NIDA-CTN-0002,MH,02_008177,SCREENING,21,11,GENITOURINARY,N,,"BASELINE, ANY DAY PRIOR TO FIRST DOSE",0,2001,1,BEFORE
NIDA-CTN-0002,MH,02_008177,SCREENING,22,11,GENITOURINARY,N,,"BASELINE, ANY DAY PRIOR TO FIRST DOSE",0,2001,1,DURING/AFTER
NIDA-CTN-0002,MH,02_008177,SCREENING,19,10,HEPATIC,N,,"BASELINE, ANY DAY PRIOR TO FIRST DOSE",0,2001,1,BEFORE
NIDA-CTN-0002,MH,02_008177,SCREENING,20,10,HEPATIC,N,,"BASELINE, ANY DAY PRIOR TO FIRST DOSE",0,2001,1,DURING/AFTER
NIDA-CTN-0002,MH,02_008177,SCREENING,15,8,MUSCULOSKELETAL,N,,"BASELINE, ANY DAY PRIOR TO FIRST DOSE",0,2001,1,BEFORE
NIDA-CTN-0002,MH,02_008177,SCREENING,16,8,MUSCULOSKELETAL,Y,,"BASELINE, ANY DAY PRIOR TO FIRST DOSE",0,2001,1,DURING/AFTER
NIDA-CTN-0002,MH,02_008177,SCREENING,27,14,NEUROLOGICAL,N,,"BASELINE, ANY DAY PRIOR TO FIRST DOSE",0,2001,1,BEFORE
NIDA-CTN-0002,MH,02_008177,SCREENING,28,14,NEUROLOGICAL,N,,"BASELINE, ANY DAY PRIOR TO FIRST DOSE",0,2001,1,DURING/AFTER
NIDA-CTN-0002,MH,02_008177,SCREENING,33,17,OTHER,Y,,"BASELINE, ANY DAY PRIOR TO FIRST DOSE",0,2001,1,BEFORE
NIDA-CTN-0002,MH,02_008177,SCREENING,34,17,OTHER,Y,,"BASELINE, ANY DAY PRIOR TO FIRST DOSE",0,2001,1,DURING/AFTER
NIDA-CTN-0002,MH,02_008177,SCREENING,25,13,PSYCHIATRIC,N,,"BASELINE, ANY DAY PRIOR TO FIRST DOSE",0,2001,1,BEFORE
NIDA-CTN-0002,MH,02_008177,SCREENING,26,13,PSYCHIATRIC,N,,"BASELINE, ANY DAY PRIOR TO FIRST DOSE",0,2001,1,DURING/AFTER
NIDA-CTN-0002,MH,02_008177,SCREENING,7,4,RESPIRATORY,Y,,"BASELINE, ANY DAY PRIOR TO FIRST DOSE",0,2001,1,BEFORE
NIDA-CTN-0002,MH,02_008177,SCREENING,8,4,RESPIRATORY,N,,"BASELINE, ANY DAY PRIOR TO FIRST DOSE",0,2001,1,DURING/AFTER
NIDA-CTN-0002,MH,02_008177,SCREENING,29,15,SEIZURE,N,,"BASELINE, ANY DAY PRIOR TO FIRST DOSE",0,2001,1,BEFORE
NIDA-CTN-0002,MH,02_008177,SCREENING,30,15,SEIZURE,N,,"BASELINE, ANY DAY PRIOR TO FIRST DOSE",0,2001,1,DURING/AFTER
NIDA-CTN-0002,MH,02_008177,SCREENING,13,7,SYMPTOMS OF TB,N,,"BASELINE, ANY DAY PRIOR TO FIRST DOSE",0,2001,1,BEFORE
NIDA-CTN-0002,MH,02_008177,SCREENING,14,7,SYMPTOMS OF TB,N,,"BASELINE, ANY DAY PRIOR TO FIRST DOSE",0,2001,1,DURING/AFTER
NIDA-CTN-0002,MH,02_008177,SCREENING,9,5,TB SKIN TEST POSITIVE,N,,"BASELINE, ANY DAY PRIOR TO FIRST DOSE",0,2001,1,BEFORE
NIDA-CTN-0002,MH,02_008177,SCREENING,10,5,TB SKIN TEST POSITIVE,N,,"BASELINE, ANY DAY PRIOR TO FIRST DOSE",0,2001,1,DURING/AFTER
NIDA-CTN-0002,MH,02_008177,SCREENING,11,6,X-RAY POSITIVE FOR TB,N,,"BASELINE, ANY DAY PRIOR TO FIRST DOSE",0,2001,1,BEFORE
NIDA-CTN-0002,MH,02_008177,SCREENING,12,6,X-RAY POSITIVE FOR TB,N,,"BASELINE, ANY DAY PRIOR TO FIRST DOSE",0,2001,1,DURING/AFTER
NIDA-CTN-0002,MH,02_008479,SCREENING,30,16,ALLERGIES,N,,"BASELINE, ANY DAY PRIOR TO FIRST DOSE",0,2001,-1,BEFORE
NIDA-CTN-0002,MH,02_008479,SCREENING,31,16,ALLERGIES,N,,"BASELINE, ANY DAY PRIOR TO FIRST DOSE",0,2001,-1,DURING/AFTER
NIDA-CTN-0002,MH,02_008479,SCREENING,5,3,CARDIOVASCULAR,N,,"BASELINE, ANY DAY PRIOR TO FIRST DOSE",0,2001,-1,BEFORE
NIDA-CTN-0002,MH,02_008479,SCREENING,6,3,CARDIOVASCULAR,N,,"BASELINE, ANY DAY PRIOR TO FIRST DOSE",0,2001,-1,DURING/AFTER
NIDA-CTN-0002,MH,02_008479,SCREENING,1,1,DERMATOLOGICAL,N,,"BASELINE, ANY DAY PRIOR TO FIRST DOSE",0,2001,-1,BEFORE
NIDA-CTN-0002,MH,02_008479,SCREENING,2,1,DERMATOLOGICAL,N,,"BASELINE, ANY DAY PRIOR TO FIRST DOSE",0,2001,-1,DURING/AFTER
NIDA-CTN-0002,MH,02_008479,SCREENING,22,12,ENDOCRINE,N,,"BASELINE, ANY DAY PRIOR TO FIRST DOSE",0,2001,-1,BEFORE
NIDA-CTN-0002,MH,02_008479,SCREENING,23,12,ENDOCRINE,N,,"BASELINE, ANY DAY PRIOR TO FIRST DOSE",0,2001,-1,DURING/AFTER
NIDA-CTN-0002,MH,02_008479,SCREENING,3,2,"EYES, EARS, NOSE, AND THROAT",N,,"BASELINE, ANY DAY PRIOR TO FIRST DOSE",0,2001,-1,BEFORE
NIDA-CTN-0002,MH,02_008479,SCREENING,4,2,"EYES, EARS, NOSE, AND THROAT",N,,"BASELINE, ANY DAY PRIOR TO FIRST DOSE",0,2001,-1,DURING/AFTER
NIDA-CTN-0002,MH,02_008479,SCREENING,16,9,GASTROINTESTINAL,Y,,"BASELINE, ANY DAY PRIOR TO FIRST DOSE",0,2001,-1,BEFORE
NIDA-CTN-0002,MH,02_008479,SCREENING,17,9,GASTROINTESTINAL,N,,"BASELINE, ANY DAY PRIOR TO FIRST DOSE",0,2001,-1,DURING/AFTER
NIDA-CTN-0002,MH,02_008479,SCREENING,20,11,GENITOURINARY,N,,"BASELINE, ANY DAY PRIOR TO FIRST DOSE",0,2001,-1,BEFORE
NIDA-CTN-0002,MH,02_008479,SCREENING,21,11,GENITOURINARY,N,,"BASELINE, ANY DAY PRIOR TO FIRST DOSE",0,2001,-1,DURING/AFTER
NIDA-CTN-0002,MH,02_008479,SCREENING,18,10,HEPATIC,N,,"BASELINE, ANY DAY PRIOR TO FIRST DOSE",0,2001,-1,BEFORE
NIDA-CTN-0002,MH,02_008479,SCREENING,19,10,HEPATIC,N,,"BASELINE, ANY DAY PRIOR TO FIRST DOSE",0,2001,-1,DURING/AFTER
NIDA-CTN-0002,MH,02_008479,SCREENING,14,8,MUSCULOSKELETAL,N,,"BASELINE, ANY DAY PRIOR TO FIRST DOSE",0,2001,-1,BEFORE
NIDA-CTN-0002,MH,02_008479,SCREENING,15,8,MUSCULOSKELETAL,N,,"BASELINE, ANY DAY PRIOR TO FIRST DOSE",0,2001,-1,DURING/AFTER
NIDA-CTN-0002,MH,02_008479,SCREENING,26,14,NEUROLOGICAL,N,,"BASELINE, ANY DAY PRIOR TO FIRST DOSE",0,2001,-1,BEFORE
NIDA-CTN-0002,MH,02_008479,SCREENING,27,14,NEUROLOGICAL,N,,"BASELINE, ANY DAY PRIOR TO FIRST DOSE",0,2001,-1,DURING/AFTER
NIDA-CTN-0002,MH,02_008479,SCREENING,32,17,OTHER,Y,,"BASELINE, ANY DAY PRIOR TO FIRST DOSE",0,2001,-1,BEFORE
NIDA-CTN-0002,MH,02_008479,SCREENING,33,17,OTHER,Y,,"BASELINE, ANY DAY PRIOR TO FIRST DOSE",0,2001,-1,DURING/AFTER
NIDA-CTN-0002,MH,02_008479,SCREENING,24,13,PSYCHIATRIC,N,,"BASELINE, ANY DAY PRIOR TO FIRST DOSE",0,2001,-1,BEFORE
NIDA-CTN-0002,MH,02_008479,SCREENING,25,13,PSYCHIATRIC,N,,"BASELINE, ANY DAY PRIOR TO FIRST DOSE",0,2001,-1,DURING/AFTER
NIDA-CTN-0002,MH,02_008479,SCREENING,7,4,RESPIRATORY,N,,"BASELINE, ANY DAY PRIOR TO FIRST DOSE",0,2001,-1,BEFORE
NIDA-CTN-0002,MH,02_008479,SCREENING,8,4,RESPIRATORY,N,,"BASELINE, ANY DAY PRIOR TO FIRST DOSE",0,2001,-1,DURING/AFTER
NIDA-CTN-0002,MH,02_008479,SCREENING,28,15,SEIZURE,N,,"BASELINE, ANY DAY PRIOR TO FIRST DOSE",0,2001,-1,BEFORE
NIDA-CTN-0002,MH,02_008479,SCREENING,29,15,SEIZURE,N,,"BASELINE, ANY DAY PRIOR TO FIRST DOSE",0,2001,-1,DURING/AFTER
NIDA-CTN-0002,MH,02_008479,SCREENING,12,7,SYMPTOMS OF TB,N,,"BASELINE, ANY DAY PRIOR TO FIRST DOSE",0,2001,-1,BEFORE
NIDA-CTN-0002,MH,02_008479,SCREENING,13,7,SYMPTOMS OF TB,N,,"BASELINE, ANY DAY PRIOR TO FIRST DOSE",0,2001,-1,DURING/AFTER
NIDA-CTN-0002,MH,02_008479,SCREENING,9,5,TB SKIN TEST POSITIVE,N,,"BASELINE, ANY DAY PRIOR TO FIRST DOSE",0,2001,-1,BEFORE
NIDA-CTN-0002,MH,02_008479,SCREENING,10,5,TB SKIN TEST POSITIVE,N,,"BASELINE, ANY DAY PRIOR TO FIRST DOSE",0,2001,-1,DURING/AFTER
NIDA-CTN-0002,MH,02_008479,SCREENING,11,6,X-RAY POSITIVE FOR TB,,NOT DONE,"BASELINE, ANY DAY PRIOR TO FIRST DOSE",0,2001,-1,
NIDA-CTN-0002,MH,02_008499,SCREENING,30,16,ALLERGIES,N,,"BASELINE, ANY DAY PRIOR TO FIRST DOSE",0,2001,1,BEFORE
NIDA-CTN-0002,MH,02_008499,SCREENING,31,16,ALLERGIES,N,,"BASELINE, ANY DAY PRIOR TO FIRST DOSE",0,2001,1,DURING/AFTER
NIDA-CTN-0002,MH,02_008499,SCREENING,5,3,CARDIOVASCULAR,N,,"BASELINE, ANY DAY PRIOR TO FIRST DOSE",0,2001,1,BEFORE
NIDA-CTN-0002,MH,02_008499,SCREENING,6,3,CARDIOVASCULAR,N,,"BASELINE, ANY DAY PRIOR TO FIRST DOSE",0,2001,1,DURING/AFTER
NIDA-CTN-0002,MH,02_008499,SCREENING,1,1,DERMATOLOGICAL,N,,"BASELINE, ANY DAY PRIOR TO FIRST DOSE",0,2001,1,BEFORE
NIDA-CTN-0002,MH,02_008499,SCREENING,2,1,DERMATOLOGICAL,N,,"BASELINE, ANY DAY PRIOR TO FIRST DOSE",0,2001,1,DURING/AFTER
NIDA-CTN-0002,MH,02_008499,SCREENING,22,12,ENDOCRINE,N,,"BASELINE, ANY DAY PRIOR TO FIRST DOSE",0,2001,1,BEFORE
NIDA-CTN-0002,MH,02_008499,SCREENING,23,12,ENDOCRINE,N,,"BASELINE, ANY DAY PRIOR TO FIRST DOSE",0,2001,1,DURING/AFTER
NIDA-CTN-0002,MH,02_008499,SCREENING,3,2,"EYES, EARS, NOSE, AND THROAT",N,,"BASELINE, ANY DAY PRIOR TO FIRST DOSE",0,2001,1,BEFORE
NIDA-CTN-0002,MH,02_008499,SCREENING,4,2,"EYES, EARS, NOSE, AND THROAT",N,,"BASELINE, ANY DAY PRIOR TO FIRST DOSE",0,2001,1,DURING/AFTER
NIDA-CTN-0002,MH,02_008499,SCREENING,16,9,GASTROINTESTINAL,N,,"BASELINE, ANY DAY PRIOR TO FIRST DOSE",0,2001,1,BEFORE
NIDA-CTN-0002,MH,02_008499,SCREENING,17,9,GASTROINTESTINAL,N,,"BASELINE, ANY DAY PRIOR TO FIRST DOSE",0,2001,1,DURING/AFTER
NIDA-CTN-0002,MH,02_008499,SCREENING,20,11,GENITOURINARY,N,,"BASELINE, ANY DAY PRIOR TO FIRST DOSE",0,2001,1,BEFORE
NIDA-CTN-0002,MH,02_008499,SCREENING,21,11,GENITOURINARY,N,,"BASELINE, ANY DAY PRIOR TO FIRST DOSE",0,2001,1,DURING/AFTER
NIDA-CTN-0002,MH,02_008499,SCREENING,18,10,HEPATIC,N,,"BASELINE, ANY DAY PRIOR TO FIRST DOSE",0,2001,1,BEFORE
NIDA-CTN-0002,MH,02_008499,SCREENING,19,10,HEPATIC,N,,"BASELINE, ANY DAY PRIOR TO FIRST DOSE",0,2001,1,DURING/AFTER
NIDA-CTN-0002,MH,02_008499,SCREENING,14,8,MUSCULOSKELETAL,N,,"BASELINE, ANY DAY PRIOR TO FIRST DOSE",0,2001,1,BEFORE
NIDA-CTN-0002,MH,02_008499,SCREENING,15,8,MUSCULOSKELETAL,N,,"BASELINE, ANY DAY PRIOR TO FIRST DOSE",0,2001,1,DURING/AFTER
NIDA-CTN-0002,MH,02_008499,SCREENING,26,14,NEUROLOGICAL,N,,"BASELINE, ANY DAY PRIOR TO FIRST DOSE",0,2001,1,BEFORE
NIDA-CTN-0002,MH,02_008499,SCREENING,27,14,NEUROLOGICAL,N,,"BASELINE, ANY DAY PRIOR TO FIRST DOSE",0,2001,1,DURING/AFTER
NIDA-CTN-0002,MH,02_008499,SCREENING,32,17,OTHER,,NOT DONE,"BASELINE, ANY DAY PRIOR TO FIRST DOSE",0,2001,1,
NIDA-CTN-0002,MH,02_008499,SCREENING,24,13,PSYCHIATRIC,N,,"BASELINE, ANY DAY PRIOR TO FIRST DOSE",0,2001,1,BEFORE
NIDA-CTN-0002,MH,02_008499,SCREENING,25,13,PSYCHIATRIC,N,,"BASELINE, ANY DAY PRIOR TO FIRST DOSE",0,2001,1,DURING/AFTER
NIDA-CTN-0002,MH,02_008499,SCREENING,7,4,RESPIRATORY,N,,"BASELINE, ANY DAY PRIOR TO FIRST DOSE",0,2001,1,BEFORE
NIDA-CTN-0002,MH,02_008499,SCREENING,8,4,RESPIRATORY,N,,"BASELINE, ANY DAY PRIOR TO FIRST DOSE",0,2001,1,DURING/AFTER
NIDA-CTN-0002,MH,02_008499,SCREENING,28,15,SEIZURE,N,,"BASELINE, ANY DAY PRIOR TO FIRST DOSE",0,2001,1,BEFORE
NIDA-CTN-0002,MH,02_008499,SCREENING,29,15,SEIZURE,N,,"BASELINE, ANY DAY PRIOR TO FIRST DOSE",0,2001,1,DURING/AFTER
NIDA-CTN-0002,MH,02_008499,SCREENING,12,7,SYMPTOMS OF TB,N,,"BASELINE, ANY DAY PRIOR TO FIRST DOSE",0,2001,1,BEFORE
NIDA-CTN-0002,MH,02_008499,SCREENING,13,7,SYMPTOMS OF TB,N,,"BASELINE, ANY DAY PRIOR TO FIRST DOSE",0,2001,1,DURING/AFTER
NIDA-CTN-0002,MH,02_008499,SCREENING,9,5,TB SKIN TEST POSITIVE,N,,"BASELINE, ANY DAY PRIOR TO FIRST DOSE",0,2001,1,BEFORE
NIDA-CTN-0002,MH,02_008499,SCREENING,10,5,TB SKIN TEST POSITIVE,N,,"BASELINE, ANY DAY PRIOR TO FIRST DOSE",0,2001,1,DURING/AFTER
NIDA-CTN-0002,MH,02_008499,SCREENING,11,6,X-RAY POSITIVE FOR TB,,NOT DONE,"BASELINE, ANY DAY PRIOR TO FIRST DOSE",0,2001,1,
NIDA-CTN-0002,MH,02_008740,SCREENING,31,16,ALLERGIES,N,,"BASELINE, ANY DAY PRIOR TO FIRST DOSE",0,2001,1,BEFORE
NIDA-CTN-0002,MH,02_008740,SCREENING,32,16,ALLERGIES,N,,"BASELINE, ANY DAY PRIOR TO FIRST DOSE",0,2001,1,DURING/AFTER
NIDA-CTN-0002,MH,02_008740,SCREENING,5,3,CARDIOVASCULAR,N,,"BASELINE, ANY DAY PRIOR TO FIRST DOSE",0,2001,1,BEFORE
NIDA-CTN-0002,MH,02_008740,SCREENING,6,3,CARDIOVASCULAR,N,,"BASELINE, ANY DAY PRIOR TO FIRST DOSE",0,2001,1,DURING/AFTER
NIDA-CTN-0002,MH,02_008740,SCREENING,1,1,DERMATOLOGICAL,N,,"BASELINE, ANY DAY PRIOR TO FIRST DOSE",0,2001,1,BEFORE
NIDA-CTN-0002,MH,02_008740,SCREENING,2,1,DERMATOLOGICAL,N,,"BASELINE, ANY DAY PRIOR TO FIRST DOSE",0,2001,1,DURING/AFTER
NIDA-CTN-0002,MH,02_008740,SCREENING,23,12,ENDOCRINE,N,,"BASELINE, ANY DAY PRIOR TO FIRST DOSE",0,2001,1,BEFORE
NIDA-CTN-0002,MH,02_008740,SCREENING,24,12,ENDOCRINE,N,,"BASELINE, ANY DAY PRIOR TO FIRST DOSE",0,2001,1,DURING/AFTER
NIDA-CTN-0002,MH,02_008740,SCREENING,3,2,"EYES, EARS, NOSE, AND THROAT",N,,"BASELINE, ANY DAY PRIOR TO FIRST DOSE",0,2001,1,BEFORE
NIDA-CTN-0002,MH,02_008740,SCREENING,4,2,"EYES, EARS, NOSE, AND THROAT",N,,"BASELINE, ANY DAY PRIOR TO FIRST DOSE",0,2001,1,DURING/AFTER
NIDA-CTN-0002,MH,02_008740,SCREENING,17,9,GASTROINTESTINAL,N,,"BASELINE, ANY DAY PRIOR TO FIRST DOSE",0,2001,1,BEFORE
NIDA-CTN-0002,MH,02_008740,SCREENING,18,9,GASTROINTESTINAL,N,,"BASELINE, ANY DAY PRIOR TO FIRST DOSE",0,2001,1,DURING/AFTER
NIDA-CTN-0002,MH,02_008740,SCREENING,21,11,GENITOURINARY,Y,,"BASELINE, ANY DAY PRIOR TO FIRST DOSE",0,2001,1,BEFORE
NIDA-CTN-0002,MH,02_008740,SCREENING,22,11,GENITOURINARY,N,,"BASELINE, ANY DAY PRIOR TO FIRST DOSE",0,2001,1,DURING/AFTER
NIDA-CTN-0002,MH,02_008740,SCREENING,19,10,HEPATIC,N,,"BASELINE, ANY DAY PRIOR TO FIRST DOSE",0,2001,1,BEFORE
NIDA-CTN-0002,MH,02_008740,SCREENING,20,10,HEPATIC,N,,"BASELINE, ANY DAY PRIOR TO FIRST DOSE",0,2001,1,DURING/AFTER
NIDA-CTN-0002,MH,02_008740,SCREENING,15,8,MUSCULOSKELETAL,N,,"BASELINE, ANY DAY PRIOR TO FIRST DOSE",0,2001,1,BEFORE
NIDA-CTN-0002,MH,02_008740,SCREENING,16,8,MUSCULOSKELETAL,N,,"BASELINE, ANY DAY PRIOR TO FIRST DOSE",0,2001,1,DURING/AFTER
NIDA-CTN-0002,MH,02_008740,SCREENING,27,14,NEUROLOGICAL,N,,"BASELINE, ANY DAY PRIOR TO FIRST DOSE",0,2001,1,BEFORE
NIDA-CTN-0002,MH,02_008740,SCREENING,28,14,NEUROLOGICAL,N,,"BASELINE, ANY DAY PRIOR TO FIRST DOSE",0,2001,1,DURING/AFTER
NIDA-CTN-0002,MH,02_008740,SCREENING,33,17,OTHER,N,,"BASELINE, ANY DAY PRIOR TO FIRST DOSE",0,2001,1,BEFORE
NIDA-CTN-0002,MH,02_008740,SCREENING,34,17,OTHER,N,,"BASELINE, ANY DAY PRIOR TO FIRST DOSE",0,2001,1,DURING/AFTER
NIDA-CTN-0002,MH,02_008740,SCREENING,25,13,PSYCHIATRIC,N,,"BASELINE, ANY DAY PRIOR TO FIRST DOSE",0,2001,1,BEFORE
NIDA-CTN-0002,MH,02_008740,SCREENING,26,13,PSYCHIATRIC,N,,"BASELINE, ANY DAY PRIOR TO FIRST DOSE",0,2001,1,DURING/AFTER
NIDA-CTN-0002,MH,02_008740,SCREENING,7,4,RESPIRATORY,N,,"BASELINE, ANY DAY PRIOR TO FIRST DOSE",0,2001,1,BEFORE
NIDA-CTN-0002,MH,02_008740,SCREENING,8,4,RESPIRATORY,N,,"BASELINE, ANY DAY PRIOR TO FIRST DOSE",0,2001,1,DURING/AFTER
NIDA-CTN-0002,MH,02_008740,SCREENING,29,15,SEIZURE,N,,"BASELINE, ANY DAY PRIOR TO FIRST DOSE",0,2001,1,BEFORE
NIDA-CTN-0002,MH,02_008740,SCREENING,30,15,SEIZURE,N,,"BASELINE, ANY DAY PRIOR TO FIRST DOSE",0,2001,1,DURING/AFTER
NIDA-CTN-0002,MH,02_008740,SCREENING,13,7,SYMPTOMS OF TB,N,,"BASELINE, ANY DAY PRIOR TO FIRST DOSE",0,2001,1,BEFORE
NIDA-CTN-0002,MH,02_008740,SCREENING,14,7,SYMPTOMS OF TB,N,,"BASELINE, ANY DAY PRIOR TO FIRST DOSE",0,2001,1,DURING/AFTER
NIDA-CTN-0002,MH,02_008740,SCREENING,9,5,TB SKIN TEST POSITIVE,N,,"BASELINE, ANY DAY PRIOR TO FIRST DOSE",0,2001,1,BEFORE
NIDA-CTN-0002,MH,02_008740,SCREENING,10,5,TB SKIN TEST POSITIVE,N,,"BASELINE, ANY DAY PRIOR TO FIRST DOSE",0,2001,1,DURING/AFTER
NIDA-CTN-0002,MH,02_008740,SCREENING,11,6,X-RAY POSITIVE FOR TB,N,,"BASELINE, ANY DAY PRIOR TO FIRST DOSE",0,2001,1,BEFORE
NIDA-CTN-0002,MH,02_008740,SCREENING,12,6,X-RAY POSITIVE FOR TB,N,,"BASELINE, ANY DAY PRIOR TO FIRST DOSE",0,2001,1,DURING/AFTER
NIDA-CTN-0002,MH,02_009190,SCREENING,30,16,ALLERGIES,N,,"BASELINE, ANY DAY PRIOR TO FIRST DOSE",0,2001,-2,BEFORE
NIDA-CTN-0002,MH,02_009190,SCREENING,31,16,ALLERGIES,N,,"BASELINE, ANY DAY PRIOR TO FIRST DOSE",0,2001,-2,DURING/AFTER
NIDA-CTN-0002,MH,02_009190,SCREENING,5,3,CARDIOVASCULAR,Y,,"BASELINE, ANY DAY PRIOR TO FIRST DOSE",0,2001,-2,BEFORE
NIDA-CTN-0002,MH,02_009190,SCREENING,6,3,CARDIOVASCULAR,N,,"BASELINE, ANY DAY PRIOR TO FIRST DOSE",0,2001,-2,DURING/AFTER
NIDA-CTN-0002,MH,02_009190,SCREENING,1,1,DERMATOLOGICAL,N,,"BASELINE, ANY DAY PRIOR TO FIRST DOSE",0,2001,-2,BEFORE
NIDA-CTN-0002,MH,02_009190,SCREENING,2,1,DERMATOLOGICAL,N,,"BASELINE, ANY DAY PRIOR TO FIRST DOSE",0,2001,-2,DURING/AFTER
NIDA-CTN-0002,MH,02_009190,SCREENING,23,12,ENDOCRINE,,NOT DONE,"BASELINE, ANY DAY PRIOR TO FIRST DOSE",0,2001,-2,
NIDA-CTN-0002,MH,02_009190,SCREENING,3,2,"EYES, EARS, NOSE, AND THROAT",Y,,"BASELINE, ANY DAY PRIOR TO FIRST DOSE",0,2001,-2,BEFORE
NIDA-CTN-0002,MH,02_009190,SCREENING,4,2,"EYES, EARS, NOSE, AND THROAT",Y,,"BASELINE, ANY DAY PRIOR TO FIRST DOSE",0,2001,-2,DURING/AFTER
NIDA-CTN-0002,MH,02_009190,SCREENING,17,9,GASTROINTESTINAL,N,,"BASELINE, ANY DAY PRIOR TO FIRST DOSE",0,2001,-2,BEFORE
NIDA-CTN-0002,MH,02_009190,SCREENING,18,9,GASTROINTESTINAL,N,,"BASELINE, ANY DAY PRIOR TO FIRST DOSE",0,2001,-2,DURING/AFTER
NIDA-CTN-0002,MH,02_009190,SCREENING,21,11,GENITOURINARY,Y,,"BASELINE, ANY DAY PRIOR TO FIRST DOSE",0,2001,-2,BEFORE
NIDA-CTN-0002,MH,02_009190,SCREENING,22,11,GENITOURINARY,Y,,"BASELINE, ANY DAY PRIOR TO FIRST DOSE",0,2001,-2,DURING/AFTER
NIDA-CTN-0002,MH,02_009190,SCREENING,19,10,HEPATIC,Y,,"BASELINE, ANY DAY PRIOR TO FIRST DOSE",0,2001,-2,BEFORE
NIDA-CTN-0002,MH,02_009190,SCREENING,20,10,HEPATIC,N,,"BASELINE, ANY DAY PRIOR TO FIRST DOSE",0,2001,-2,DURING/AFTER
NIDA-CTN-0002,MH,02_009190,SCREENING,15,8,MUSCULOSKELETAL,Y,,"BASELINE, ANY DAY PRIOR TO FIRST DOSE",0,2001,-2,BEFORE
NIDA-CTN-0002,MH,02_009190,SCREENING,16,8,MUSCULOSKELETAL,Y,,"BASELINE, ANY DAY PRIOR TO FIRST DOSE",0,2001,-2,DURING/AFTER
NIDA-CTN-0002,MH,02_009190,SCREENING,26,14,NEUROLOGICAL,N,,"BASELINE, ANY DAY PRIOR TO FIRST DOSE",0,2001,-2,BEFORE
NIDA-CTN-0002,MH,02_009190,SCREENING,27,14,NEUROLOGICAL,N,,"BASELINE, ANY DAY PRIOR TO FIRST DOSE",0,2001,-2,DURING/AFTER
NIDA-CTN-0002,MH,02_009190,SCREENING,32,17,OTHER,Y,,"BASELINE, ANY DAY PRIOR TO FIRST DOSE",0,2001,-2,BEFORE
NIDA-CTN-0002,MH,02_009190,SCREENING,33,17,OTHER,Y,,"BASELINE, ANY DAY PRIOR TO FIRST DOSE",0,2001,-2,DURING/AFTER
NIDA-CTN-0002,MH,02_009190,SCREENING,24,13,PSYCHIATRIC,N,,"BASELINE, ANY DAY PRIOR TO FIRST DOSE",0,2001,-2,BEFORE
NIDA-CTN-0002,MH,02_009190,SCREENING,25,13,PSYCHIATRIC,N,,"BASELINE, ANY DAY PRIOR TO FIRST DOSE",0,2001,-2,DURING/AFTER
NIDA-CTN-0002,MH,02_009190,SCREENING,7,4,RESPIRATORY,Y,,"BASELINE, ANY DAY PRIOR TO FIRST DOSE",0,2001,-2,BEFORE
NIDA-CTN-0002,MH,02_009190,SCREENING,8,4,RESPIRATORY,N,,"BASELINE, ANY DAY PRIOR TO FIRST DOSE",0,2001,-2,DURING/AFTER
NIDA-CTN-0002,MH,02_009190,SCREENING,28,15,SEIZURE,N,,"BASELINE, ANY DAY PRIOR TO FIRST DOSE",0,2001,-2,BEFORE
NIDA-CTN-0002,MH,02_009190,SCREENING,29,15,SEIZURE,N,,"BASELINE, ANY DAY PRIOR TO FIRST DOSE",0,2001,-2,DURING/AFTER
NIDA-CTN-0002,MH,02_009190,SCREENING,13,7,SYMPTOMS OF TB,N,,"BASELINE, ANY DAY PRIOR TO FIRST DOSE",0,2001,-2,BEFORE
NIDA-CTN-0002,MH,02_009190,SCREENING,14,7,SYMPTOMS OF TB,N,,"BASELINE, ANY DAY PRIOR TO FIRST DOSE",0,2001,-2,DURING/AFTER
NIDA-CTN-0002,MH,02_009190,SCREENING,9,5,TB SKIN TEST POSITIVE,N,,"BASELINE, ANY DAY PRIOR TO FIRST DOSE",0,2001,-2,BEFORE
NIDA-CTN-0002,MH,02_009190,SCREENING,10,5,TB SKIN TEST POSITIVE,N,,"BASELINE, ANY DAY PRIOR TO FIRST DOSE",0,2001,-2,DURING/AFTER
NIDA-CTN-0002,MH,02_009190,SCREENING,11,6,X-RAY POSITIVE FOR TB,N,,"BASELINE, ANY DAY PRIOR TO FIRST DOSE",0,2001,-2,BEFORE
NIDA-CTN-0002,MH,02_009190,SCREENING,12,6,X-RAY POSITIVE FOR TB,N,,"BASELINE, ANY DAY PRIOR TO FIRST DOSE",0,2001,-2,DURING/AFTER
NIDA-CTN-0002,MH,02_009452,SCREENING,31,16,ALLERGIES,N,,"BASELINE, ANY DAY PRIOR TO FIRST DOSE",0,2002,-9,BEFORE
NIDA-CTN-0002,MH,02_009452,SCREENING,32,16,ALLERGIES,N,,"BASELINE, ANY DAY PRIOR TO FIRST DOSE",0,2002,-9,DURING/AFTER
NIDA-CTN-0002,MH,02_009452,SCREENING,5,3,CARDIOVASCULAR,Y,,"BASELINE, ANY DAY PRIOR TO FIRST DOSE",0,2002,-9,BEFORE
NIDA-CTN-0002,MH,02_009452,SCREENING,6,3,CARDIOVASCULAR,Y,,"BASELINE, ANY DAY PRIOR TO FIRST DOSE",0,2002,-9,DURING/AFTER
NIDA-CTN-0002,MH,02_009452,SCREENING,1,1,DERMATOLOGICAL,N,,"BASELINE, ANY DAY PRIOR TO FIRST DOSE",0,2002,-9,BEFORE
NIDA-CTN-0002,MH,02_009452,SCREENING,2,1,DERMATOLOGICAL,Y,,"BASELINE, ANY DAY PRIOR TO FIRST DOSE",0,2002,-9,DURING/AFTER
NIDA-CTN-0002,MH,02_009452,SCREENING,23,12,ENDOCRINE,Y,,"BASELINE, ANY DAY PRIOR TO FIRST DOSE",0,2002,-9,BEFORE
NIDA-CTN-0002,MH,02_009452,SCREENING,24,12,ENDOCRINE,Y,,"BASELINE, ANY DAY PRIOR TO FIRST DOSE",0,2002,-9,DURING/AFTER
NIDA-CTN-0002,MH,02_009452,SCREENING,3,2,"EYES, EARS, NOSE, AND THROAT",N,,"BASELINE, ANY DAY PRIOR TO FIRST DOSE",0,2002,-9,BEFORE
NIDA-CTN-0002,MH,02_009452,SCREENING,4,2,"EYES, EARS, NOSE, AND THROAT",N,,"BASELINE, ANY DAY PRIOR TO FIRST DOSE",0,2002,-9,DURING/AFTER
NIDA-CTN-0002,MH,02_009452,SCREENING,17,9,GASTROINTESTINAL,N,,"BASELINE, ANY DAY PRIOR TO FIRST DOSE",0,2002,-9,BEFORE
NIDA-CTN-0002,MH,02_009452,SCREENING,18,9,GASTROINTESTINAL,N,,"BASELINE, ANY DAY PRIOR TO FIRST DOSE",0,2002,-9,DURING/AFTER
NIDA-CTN-0002,MH,02_009452,SCREENING,21,11,GENITOURINARY,Y,,"BASELINE, ANY DAY PRIOR TO FIRST DOSE",0,2002,-9,BEFORE
NIDA-CTN-0002,MH,02_009452,SCREENING,22,11,GENITOURINARY,Y,,"BASELINE, ANY DAY PRIOR TO FIRST DOSE",0,2002,-9,DURING/AFTER
NIDA-CTN-0002,MH,02_009452,SCREENING,19,10,HEPATIC,Y,,"BASELINE, ANY DAY PRIOR TO FIRST DOSE",0,2002,-9,BEFORE
NIDA-CTN-0002,MH,02_009452,SCREENING,20,10,HEPATIC,Y,,"BASELINE, ANY DAY PRIOR TO FIRST DOSE",0,2002,-9,DURING/AFTER
NIDA-CTN-0002,MH,02_009452,SCREENING,15,8,MUSCULOSKELETAL,Y,,"BASELINE, ANY DAY PRIOR TO FIRST DOSE",0,2002,-9,BEFORE
NIDA-CTN-0002,MH,02_009452,SCREENING,16,8,MUSCULOSKELETAL,Y,,"BASELINE, ANY DAY PRIOR TO FIRST DOSE",0,2002,-9,DURING/AFTER
NIDA-CTN-0002,MH,02_009452,SCREENING,27,14,NEUROLOGICAL,N,,"BASELINE, ANY DAY PRIOR TO FIRST DOSE",0,2002,-9,BEFORE
NIDA-CTN-0002,MH,02_009452,SCREENING,28,14,NEUROLOGICAL,N,,"BASELINE, ANY DAY PRIOR TO FIRST DOSE",0,2002,-9,DURING/AFTER
NIDA-CTN-0002,MH,02_009452,SCREENING,33,17,OTHER,Y,,"BASELINE, ANY DAY PRIOR TO FIRST DOSE",0,2002,-9,BEFORE
NIDA-CTN-0002,MH,02_009452,SCREENING,34,17,OTHER,Y,,"BASELINE, ANY DAY PRIOR TO FIRST DOSE",0,2002,-9,DURING/AFTER
NIDA-CTN-0002,MH,02_009452,SCREENING,25,13,PSYCHIATRIC,N,,"BASELINE, ANY DAY PRIOR TO FIRST DOSE",0,2002,-9,BEFORE
NIDA-CTN-0002,MH,02_009452,SCREENING,26,13,PSYCHIATRIC,N,,"BASELINE, ANY DAY PRIOR TO FIRST DOSE",0,2002,-9,DURING/AFTER
NIDA-CTN-0002,MH,02_009452,SCREENING,7,4,RESPIRATORY,N,,"BASELINE, ANY DAY PRIOR TO FIRST DOSE",0,2002,-9,BEFORE
NIDA-CTN-0002,MH,02_009452,SCREENING,8,4,RESPIRATORY,Y,,"BASELINE, ANY DAY PRIOR TO FIRST DOSE",0,2002,-9,DURING/AFTER
NIDA-CTN-0002,MH,02_009452,SCREENING,29,15,SEIZURE,N,,"BASELINE, ANY DAY PRIOR TO FIRST DOSE",0,2002,-9,BEFORE
NIDA-CTN-0002,MH,02_009452,SCREENING,30,15,SEIZURE,N,,"BASELINE, ANY DAY PRIOR TO FIRST DOSE",0,2002,-9,DURING/AFTER
NIDA-CTN-0002,MH,02_009452,SCREENING,13,7,SYMPTOMS OF TB,N,,"BASELINE, ANY DAY PRIOR TO FIRST DOSE",0,2002,-9,BEFORE
NIDA-CTN-0002,MH,02_009452,SCREENING,14,7,SYMPTOMS OF TB,N,,"BASELINE, ANY DAY PRIOR TO FIRST DOSE",0,2002,-9,DURING/AFTER
NIDA-CTN-0002,MH,02_009452,SCREENING,9,5,TB SKIN TEST POSITIVE,Y,,"BASELINE, ANY DAY PRIOR TO FIRST DOSE",0,2002,-9,BEFORE
NIDA-CTN-0002,MH,02_009452,SCREENING,10,5,TB SKIN TEST POSITIVE,N,,"BASELINE, ANY DAY PRIOR TO FIRST DOSE",0,2002,-9,DURING/AFTER
NIDA-CTN-0002,MH,02_009452,SCREENING,11,6,X-RAY POSITIVE FOR TB,N,,"BASELINE, ANY DAY PRIOR TO FIRST DOSE",0,2002,-9,BEFORE
NIDA-CTN-0002,MH,02_009452,SCREENING,12,6,X-RAY POSITIVE FOR TB,N,,"BASELINE, ANY DAY PRIOR TO FIRST DOSE",0,2002,-9,DURING/AFTER
NIDA-CTN-0002,MH,02_011297,ACTIVE,31,16,ALLERGIES,N,,"BASELINE, ANY DAY PRIOR TO FIRST DOSE",0,2001,1,BEFORE
NIDA-CTN-0002,MH,02_011297,ACTIVE,32,16,ALLERGIES,N,,"BASELINE, ANY DAY PRIOR TO FIRST DOSE",0,2001,1,DURING/AFTER
NIDA-CTN-0002,MH,02_011297,ACTIVE,5,3,CARDIOVASCULAR,N,,"BASELINE, ANY DAY PRIOR TO FIRST DOSE",0,2001,1,BEFORE
NIDA-CTN-0002,MH,02_011297,ACTIVE,6,3,CARDIOVASCULAR,N,,"BASELINE, ANY DAY PRIOR TO FIRST DOSE",0,2001,1,DURING/AFTER
NIDA-CTN-0002,MH,02_011297,ACTIVE,1,1,DERMATOLOGICAL,Y,,"BASELINE, ANY DAY PRIOR TO FIRST DOSE",0,2001,1,BEFORE
NIDA-CTN-0002,MH,02_011297,ACTIVE,2,1,DERMATOLOGICAL,Y,,"BASELINE, ANY DAY PRIOR TO FIRST DOSE",0,2001,1,DURING/AFTER
NIDA-CTN-0002,MH,02_011297,ACTIVE,23,12,ENDOCRINE,N,,"BASELINE, ANY DAY PRIOR TO FIRST DOSE",0,2001,1,BEFORE
NIDA-CTN-0002,MH,02_011297,ACTIVE,24,12,ENDOCRINE,N,,"BASELINE, ANY DAY PRIOR TO FIRST DOSE",0,2001,1,DURING/AFTER
NIDA-CTN-0002,MH,02_011297,ACTIVE,3,2,"EYES, EARS, NOSE, AND THROAT",N,,"BASELINE, ANY DAY PRIOR TO FIRST DOSE",0,2001,1,BEFORE
NIDA-CTN-0002,MH,02_011297,ACTIVE,4,2,"EYES, EARS, NOSE, AND THROAT",N,,"BASELINE, ANY DAY PRIOR TO FIRST DOSE",0,2001,1,DURING/AFTER
NIDA-CTN-0002,MH,02_011297,ACTIVE,17,9,GASTROINTESTINAL,N,,"BASELINE, ANY DAY PRIOR TO FIRST DOSE",0,2001,1,BEFORE
NIDA-CTN-0002,MH,02_011297,ACTIVE,18,9,GASTROINTESTINAL,N,,"BASELINE, ANY DAY PRIOR TO FIRST DOSE",0,2001,1,DURING/AFTER
NIDA-CTN-0002,MH,02_011297,ACTIVE,21,11,GENITOURINARY,N,,"BASELINE, ANY DAY PRIOR TO FIRST DOSE",0,2001,1,BEFORE
NIDA-CTN-0002,MH,02_011297,ACTIVE,22,11,GENITOURINARY,N,,"BASELINE, ANY DAY PRIOR TO FIRST DOSE",0,2001,1,DURING/AFTER
NIDA-CTN-0002,MH,02_011297,ACTIVE,19,10,HEPATIC,N,,"BASELINE, ANY DAY PRIOR TO FIRST DOSE",0,2001,1,BEFORE
NIDA-CTN-0002,MH,02_011297,ACTIVE,20,10,HEPATIC,N,,"BASELINE, ANY DAY PRIOR TO FIRST DOSE",0,2001,1,DURING/AFTER
NIDA-CTN-0002,MH,02_011297,ACTIVE,15,8,MUSCULOSKELETAL,Y,,"BASELINE, ANY DAY PRIOR TO FIRST DOSE",0,2001,1,BEFORE
NIDA-CTN-0002,MH,02_011297,ACTIVE,16,8,MUSCULOSKELETAL,Y,,"BASELINE, ANY DAY PRIOR TO FIRST DOSE",0,2001,1,DURING/AFTER
NIDA-CTN-0002,MH,02_011297,ACTIVE,27,14,NEUROLOGICAL,N,,"BASELINE, ANY DAY PRIOR TO FIRST DOSE",0,2001,1,BEFORE
NIDA-CTN-0002,MH,02_011297,ACTIVE,28,14,NEUROLOGICAL,Y,,"BASELINE, ANY DAY PRIOR TO FIRST DOSE",0,2001,1,DURING/AFTER
NIDA-CTN-0002,MH,02_011297,ACTIVE,33,17,OTHER,N,,"BASELINE, ANY DAY PRIOR TO FIRST DOSE",0,2001,1,BEFORE
NIDA-CTN-0002,MH,02_011297,ACTIVE,34,17,OTHER,N,,"BASELINE, ANY DAY PRIOR TO FIRST DOSE",0,2001,1,DURING/AFTER
NIDA-CTN-0002,MH,02_011297,ACTIVE,25,13,PSYCHIATRIC,Y,,"BASELINE, ANY DAY PRIOR TO FIRST DOSE",0,2001,1,BEFORE
NIDA-CTN-0002,MH,02_011297,ACTIVE,26,13,PSYCHIATRIC,Y,,"BASELINE, ANY DAY PRIOR TO FIRST DOSE",0,2001,1,DURING/AFTER
NIDA-CTN-0002,MH,02_011297,ACTIVE,7,4,RESPIRATORY,N,,"BASELINE, ANY DAY PRIOR TO FIRST DOSE",0,2001,1,BEFORE
NIDA-CTN-0002,MH,02_011297,ACTIVE,8,4,RESPIRATORY,N,,"BASELINE, ANY DAY PRIOR TO FIRST DOSE",0,2001,1,DURING/AFTER
NIDA-CTN-0002,MH,02_011297,ACTIVE,29,15,SEIZURE,N,,"BASELINE, ANY DAY PRIOR TO FIRST DOSE",0,2001,1,BEFORE
NIDA-CTN-0002,MH,02_011297,ACTIVE,30,15,SEIZURE,N,,"BASELINE, ANY DAY PRIOR TO FIRST DOSE",0,2001,1,DURING/AFTER
NIDA-CTN-0002,MH,02_011297,ACTIVE,13,7,SYMPTOMS OF TB,N,,"BASELINE, ANY DAY PRIOR TO FIRST DOSE",0,2001,1,BEFORE
NIDA-CTN-0002,MH,02_011297,ACTIVE,14,7,SYMPTOMS OF TB,N,,"BASELINE, ANY DAY PRIOR TO FIRST DOSE",0,2001,1,DURING/AFTER
NIDA-CTN-0002,MH,02_011297,ACTIVE,9,5,TB SKIN TEST POSITIVE,N,,"BASELINE, ANY DAY PRIOR TO FIRST DOSE",0,2001,1,BEFORE
NIDA-CTN-0002,MH,02_011297,ACTIVE,10,5,TB SKIN TEST POSITIVE,N,,"BASELINE, ANY DAY PRIOR TO FIRST DOSE",0,2001,1,DURING/AFTER
NIDA-CTN-0002,MH,02_011297,ACTIVE,11,6,X-RAY POSITIVE FOR TB,N,,"BASELINE, ANY DAY PRIOR TO FIRST DOSE",0,2001,1,BEFORE
NIDA-CTN-0002,MH,02_011297,ACTIVE,12,6,X-RAY POSITIVE FOR TB,N,,"BASELINE, ANY DAY PRIOR TO FIRST DOSE",0,2001,1,DURING/AFTER
NIDA-CTN-0002,MH,02_011526,SCREENING,31,16,ALLERGIES,Y,,"BASELINE, ANY DAY PRIOR TO FIRST DOSE",0,2001,-1,BEFORE
NIDA-CTN-0002,MH,02_011526,SCREENING,32,16,ALLERGIES,N,,"BASELINE, ANY DAY PRIOR TO FIRST DOSE",0,2001,-1,DURING/AFTER
NIDA-CTN-0002,MH,02_011526,SCREENING,5,3,CARDIOVASCULAR,N,,"BASELINE, ANY DAY PRIOR TO FIRST DOSE",0,2001,-1,BEFORE
NIDA-CTN-0002,MH,02_011526,SCREENING,6,3,CARDIOVASCULAR,N,,"BASELINE, ANY DAY PRIOR TO FIRST DOSE",0,2001,-1,DURING/AFTER
NIDA-CTN-0002,MH,02_011526,SCREENING,1,1,DERMATOLOGICAL,N,,"BASELINE, ANY DAY PRIOR TO FIRST DOSE",0,2001,-1,BEFORE
NIDA-CTN-0002,MH,02_011526,SCREENING,2,1,DERMATOLOGICAL,N,,"BASELINE, ANY DAY PRIOR TO FIRST DOSE",0,2001,-1,DURING/AFTER
NIDA-CTN-0002,MH,02_011526,SCREENING,23,12,ENDOCRINE,N,,"BASELINE, ANY DAY PRIOR TO FIRST DOSE",0,2001,-1,BEFORE
NIDA-CTN-0002,MH,02_011526,SCREENING,24,12,ENDOCRINE,N,,"BASELINE, ANY DAY PRIOR TO FIRST DOSE",0,2001,-1,DURING/AFTER
NIDA-CTN-0002,MH,02_011526,SCREENING,3,2,"EYES, EARS, NOSE, AND THROAT",Y,,"BASELINE, ANY DAY PRIOR TO FIRST DOSE",0,2001,-1,BEFORE
NIDA-CTN-0002,MH,02_011526,SCREENING,4,2,"EYES, EARS, NOSE, AND THROAT",N,,"BASELINE, ANY DAY PRIOR TO FIRST DOSE",0,2001,-1,DURING/AFTER
NIDA-CTN-0002,MH,02_011526,SCREENING,17,9,GASTROINTESTINAL,N,,"BASELINE, ANY DAY PRIOR TO FIRST DOSE",0,2001,-1,BEFORE
NIDA-CTN-0002,MH,02_011526,SCREENING,18,9,GASTROINTESTINAL,N,,"BASELINE, ANY DAY PRIOR TO FIRST DOSE",0,2001,-1,DURING/AFTER
NIDA-CTN-0002,MH,02_011526,SCREENING,21,11,GENITOURINARY,N,,"BASELINE, ANY DAY PRIOR TO FIRST DOSE",0,2001,-1,BEFORE
NIDA-CTN-0002,MH,02_011526,SCREENING,22,11,GENITOURINARY,N,,"BASELINE, ANY DAY PRIOR TO FIRST DOSE",0,2001,-1,DURING/AFTER
NIDA-CTN-0002,MH,02_011526,SCREENING,19,10,HEPATIC,N,,"BASELINE, ANY DAY PRIOR TO FIRST DOSE",0,2001,-1,BEFORE
NIDA-CTN-0002,MH,02_011526,SCREENING,20,10,HEPATIC,N,,"BASELINE, ANY DAY PRIOR TO FIRST DOSE",0,2001,-1,DURING/AFTER
NIDA-CTN-0002,MH,02_011526,SCREENING,15,8,MUSCULOSKELETAL,N,,"BASELINE, ANY DAY PRIOR TO FIRST DOSE",0,2001,-1,BEFORE
NIDA-CTN-0002,MH,02_011526,SCREENING,16,8,MUSCULOSKELETAL,N,,"BASELINE, ANY DAY PRIOR TO FIRST DOSE",0,2001,-1,DURING/AFTER
NIDA-CTN-0002,MH,02_011526,SCREENING,27,14,NEUROLOGICAL,N,,"BASELINE, ANY DAY PRIOR TO FIRST DOSE",0,2001,-1,BEFORE
NIDA-CTN-0002,MH,02_011526,SCREENING,28,14,NEUROLOGICAL,N,,"BASELINE, ANY DAY PRIOR TO FIRST DOSE",0,2001,-1,DURING/AFTER
NIDA-CTN-0002,MH,02_011526,SCREENING,33,17,OTHER,Y,,"BASELINE, ANY DAY PRIOR TO FIRST DOSE",0,2001,-1,BEFORE
NIDA-CTN-0002,MH,02_011526,SCREENING,34,17,OTHER,Y,,"BASELINE, ANY DAY PRIOR TO FIRST DOSE",0,2001,-1,DURING/AFTER
NIDA-CTN-0002,MH,02_011526,SCREENING,25,13,PSYCHIATRIC,N,,"BASELINE, ANY DAY PRIOR TO FIRST DOSE",0,2001,-1,BEFORE
NIDA-CTN-0002,MH,02_011526,SCREENING,26,13,PSYCHIATRIC,N,,"BASELINE, ANY DAY PRIOR TO FIRST DOSE",0,2001,-1,DURING/AFTER
NIDA-CTN-0002,MH,02_011526,SCREENING,7,4,RESPIRATORY,N,,"BASELINE, ANY DAY PRIOR TO FIRST DOSE",0,2001,-1,BEFORE
NIDA-CTN-0002,MH,02_011526,SCREENING,8,4,RESPIRATORY,N,,"BASELINE, ANY DAY PRIOR TO FIRST DOSE",0,2001,-1,DURING/AFTER
NIDA-CTN-0002,MH,02_011526,SCREENING,29,15,SEIZURE,N,,"BASELINE, ANY DAY PRIOR TO FIRST DOSE",0,2001,-1,BEFORE
NIDA-CTN-0002,MH,02_011526,SCREENING,30,15,SEIZURE,N,,"BASELINE, ANY DAY PRIOR TO FIRST DOSE",0,2001,-1,DURING/AFTER
NIDA-CTN-0002,MH,02_011526,SCREENING,13,7,SYMPTOMS OF TB,N,,"BASELINE, ANY DAY PRIOR TO FIRST DOSE",0,2001,-1,BEFORE
NIDA-CTN-0002,MH,02_011526,SCREENING,14,7,SYMPTOMS OF TB,N,,"BASELINE, ANY DAY PRIOR TO FIRST DOSE",0,2001,-1,DURING/AFTER
NIDA-CTN-0002,MH,02_011526,SCREENING,9,5,TB SKIN TEST POSITIVE,N,,"BASELINE, ANY DAY PRIOR TO FIRST DOSE",0,2001,-1,BEFORE
NIDA-CTN-0002,MH,02_011526,SCREENING,10,5,TB SKIN TEST POSITIVE,N,,"BASELINE, ANY DAY PRIOR TO FIRST DOSE",0,2001,-1,DURING/AFTER
NIDA-CTN-0002,MH,02_011526,SCREENING,11,6,X-RAY POSITIVE FOR TB,N,,"BASELINE, ANY DAY PRIOR TO FIRST DOSE",0,2001,-1,BEFORE
NIDA-CTN-0002,MH,02_011526,SCREENING,12,6,X-RAY POSITIVE FOR TB,N,,"BASELINE, ANY DAY PRIOR TO FIRST DOSE",0,2001,-1,DURING/AFTER
NIDA-CTN-0002,MH,02_011902,SCREENING,31,16,ALLERGIES,N,,"BASELINE, ANY DAY PRIOR TO FIRST DOSE",0,2001,1,BEFORE
NIDA-CTN-0002,MH,02_011902,SCREENING,32,16,ALLERGIES,N,,"BASELINE, ANY DAY PRIOR TO FIRST DOSE",0,2001,1,DURING/AFTER
NIDA-CTN-0002,MH,02_011902,SCREENING,5,3,CARDIOVASCULAR,N,,"BASELINE, ANY DAY PRIOR TO FIRST DOSE",0,2001,1,BEFORE
NIDA-CTN-0002,MH,02_011902,SCREENING,6,3,CARDIOVASCULAR,N,,"BASELINE, ANY DAY PRIOR TO FIRST DOSE",0,2001,1,DURING/AFTER
NIDA-CTN-0002,MH,02_011902,SCREENING,1,1,DERMATOLOGICAL,N,,"BASELINE, ANY DAY PRIOR TO FIRST DOSE",0,2001,1,BEFORE
NIDA-CTN-0002,MH,02_011902,SCREENING,2,1,DERMATOLOGICAL,N,,"BASELINE, ANY DAY PRIOR TO FIRST DOSE",0,2001,1,DURING/AFTER
NIDA-CTN-0002,MH,02_011902,SCREENING,23,12,ENDOCRINE,N,,"BASELINE, ANY DAY PRIOR TO FIRST DOSE",0,2001,1,BEFORE
NIDA-CTN-0002,MH,02_011902,SCREENING,24,12,ENDOCRINE,N,,"BASELINE, ANY DAY PRIOR TO FIRST DOSE",0,2001,1,DURING/AFTER
NIDA-CTN-0002,MH,02_011902,SCREENING,3,2,"EYES, EARS, NOSE, AND THROAT",N,,"BASELINE, ANY DAY PRIOR TO FIRST DOSE",0,2001,1,BEFORE
NIDA-CTN-0002,MH,02_011902,SCREENING,4,2,"EYES, EARS, NOSE, AND THROAT",N,,"BASELINE, ANY DAY PRIOR TO FIRST DOSE",0,2001,1,DURING/AFTER
NIDA-CTN-0002,MH,02_011902,SCREENING,17,9,GASTROINTESTINAL,N,,"BASELINE, ANY DAY PRIOR TO FIRST DOSE",0,2001,1,BEFORE
NIDA-CTN-0002,MH,02_011902,SCREENING,18,9,GASTROINTESTINAL,N,,"BASELINE, ANY DAY PRIOR TO FIRST DOSE",0,2001,1,DURING/AFTER
NIDA-CTN-0002,MH,02_011902,SCREENING,21,11,GENITOURINARY,N,,"BASELINE, ANY DAY PRIOR TO FIRST DOSE",0,2001,1,BEFORE
NIDA-CTN-0002,MH,02_011902,SCREENING,22,11,GENITOURINARY,N,,"BASELINE, ANY DAY PRIOR TO FIRST DOSE",0,2001,1,DURING/AFTER
NIDA-CTN-0002,MH,02_011902,SCREENING,19,10,HEPATIC,N,,"BASELINE, ANY DAY PRIOR TO FIRST DOSE",0,2001,1,BEFORE
NIDA-CTN-0002,MH,02_011902,SCREENING,20,10,HEPATIC,N,,"BASELINE, ANY DAY PRIOR TO FIRST DOSE",0,2001,1,DURING/AFTER
NIDA-CTN-0002,MH,02_011902,SCREENING,15,8,MUSCULOSKELETAL,N,,"BASELINE, ANY DAY PRIOR TO FIRST DOSE",0,2001,1,BEFORE
NIDA-CTN-0002,MH,02_011902,SCREENING,16,8,MUSCULOSKELETAL,N,,"BASELINE, ANY DAY PRIOR TO FIRST DOSE",0,2001,1,DURING/AFTER
NIDA-CTN-0002,MH,02_011902,SCREENING,27,14,NEUROLOGICAL,N,,"BASELINE, ANY DAY PRIOR TO FIRST DOSE",0,2001,1,BEFORE
NIDA-CTN-0002,MH,02_011902,SCREENING,28,14,NEUROLOGICAL,N,,"BASELINE, ANY DAY PRIOR TO FIRST DOSE",0,2001,1,DURING/AFTER
NIDA-CTN-0002,MH,02_011902,SCREENING,25,13,PSYCHIATRIC,N,,"BASELINE, ANY DAY PRIOR TO FIRST DOSE",0,2001,1,BEFORE
NIDA-CTN-0002,MH,02_011902,SCREENING,26,13,PSYCHIATRIC,N,,"BASELINE, ANY DAY PRIOR TO FIRST DOSE",0,2001,1,DURING/AFTER
NIDA-CTN-0002,MH,02_011902,SCREENING,7,4,RESPIRATORY,N,,"BASELINE, ANY DAY PRIOR TO FIRST DOSE",0,2001,1,BEFORE
NIDA-CTN-0002,MH,02_011902,SCREENING,8,4,RESPIRATORY,N,,"BASELINE, ANY DAY PRIOR TO FIRST DOSE",0,2001,1,DURING/AFTER
NIDA-CTN-0002,MH,02_011902,SCREENING,29,15,SEIZURE,N,,"BASELINE, ANY DAY PRIOR TO FIRST DOSE",0,2001,1,BEFORE
NIDA-CTN-0002,MH,02_011902,SCREENING,30,15,SEIZURE,N,,"BASELINE, ANY DAY PRIOR TO FIRST DOSE",0,2001,1,DURING/AFTER
NIDA-CTN-0002,MH,02_011902,SCREENING,13,7,SYMPTOMS OF TB,N,,"BASELINE, ANY DAY PRIOR TO FIRST DOSE",0,2001,1,BEFORE
NIDA-CTN-0002,MH,02_011902,SCREENING,14,7,SYMPTOMS OF TB,N,,"BASELINE, ANY DAY PRIOR TO FIRST DOSE",0,2001,1,DURING/AFTER
NIDA-CTN-0002,MH,02_011902,SCREENING,9,5,TB SKIN TEST POSITIVE,N,,"BASELINE, ANY DAY PRIOR TO FIRST DOSE",0,2001,1,BEFORE
NIDA-CTN-0002,MH,02_011902,SCREENING,10,5,TB SKIN TEST POSITIVE,N,,"BASELINE, ANY DAY PRIOR TO FIRST DOSE",0,2001,1,DURING/AFTER
NIDA-CTN-0002,MH,02_011902,SCREENING,11,6,X-RAY POSITIVE FOR TB,N,,"BASELINE, ANY DAY PRIOR TO FIRST DOSE",0,2001,1,BEFORE
NIDA-CTN-0002,MH,02_011902,SCREENING,12,6,X-RAY POSITIVE FOR TB,N,,"BASELINE, ANY DAY PRIOR TO FIRST DOSE",0,2001,1,DURING/AFTER
NIDA-CTN-0002,MH,02_012064,SCREENING,29,16,ALLERGIES,N,,"BASELINE, ANY DAY PRIOR TO FIRST DOSE",0,2001,-15,BEFORE
NIDA-CTN-0002,MH,02_012064,SCREENING,30,16,ALLERGIES,N,,"BASELINE, ANY DAY PRIOR TO FIRST DOSE",0,2001,-15,DURING/AFTER
NIDA-CTN-0002,MH,02_012064,SCREENING,5,3,CARDIOVASCULAR,N,,"BASELINE, ANY DAY PRIOR TO FIRST DOSE",0,2001,-15,BEFORE
NIDA-CTN-0002,MH,02_012064,SCREENING,6,3,CARDIOVASCULAR,N,,"BASELINE, ANY DAY PRIOR TO FIRST DOSE",0,2001,-15,DURING/AFTER
NIDA-CTN-0002,MH,02_012064,SCREENING,1,1,DERMATOLOGICAL,N,,"BASELINE, ANY DAY PRIOR TO FIRST DOSE",0,2001,-15,BEFORE
NIDA-CTN-0002,MH,02_012064,SCREENING,2,1,DERMATOLOGICAL,N,,"BASELINE, ANY DAY PRIOR TO FIRST DOSE",0,2001,-15,DURING/AFTER
NIDA-CTN-0002,MH,02_012064,SCREENING,21,12,ENDOCRINE,N,,"BASELINE, ANY DAY PRIOR TO FIRST DOSE",0,2001,-15,BEFORE
NIDA-CTN-0002,MH,02_012064,SCREENING,22,12,ENDOCRINE,N,,"BASELINE, ANY DAY PRIOR TO FIRST DOSE",0,2001,-15,DURING/AFTER
NIDA-CTN-0002,MH,02_012064,SCREENING,3,2,"EYES, EARS, NOSE, AND THROAT",N,,"BASELINE, ANY DAY PRIOR TO FIRST DOSE",0,2001,-15,BEFORE
NIDA-CTN-0002,MH,02_012064,SCREENING,4,2,"EYES, EARS, NOSE, AND THROAT",N,,"BASELINE, ANY DAY PRIOR TO FIRST DOSE",0,2001,-15,DURING/AFTER
NIDA-CTN-0002,MH,02_012064,SCREENING,15,9,GASTROINTESTINAL,N,,"BASELINE, ANY DAY PRIOR TO FIRST DOSE",0,2001,-15,BEFORE
NIDA-CTN-0002,MH,02_012064,SCREENING,16,9,GASTROINTESTINAL,N,,"BASELINE, ANY DAY PRIOR TO FIRST DOSE",0,2001,-15,DURING/AFTER
NIDA-CTN-0002,MH,02_012064,SCREENING,19,11,GENITOURINARY,N,,"BASELINE, ANY DAY PRIOR TO FIRST DOSE",0,2001,-15,BEFORE
NIDA-CTN-0002,MH,02_012064,SCREENING,20,11,GENITOURINARY,N,,"BASELINE, ANY DAY PRIOR TO FIRST DOSE",0,2001,-15,DURING/AFTER
NIDA-CTN-0002,MH,02_012064,SCREENING,17,10,HEPATIC,N,,"BASELINE, ANY DAY PRIOR TO FIRST DOSE",0,2001,-15,BEFORE
NIDA-CTN-0002,MH,02_012064,SCREENING,18,10,HEPATIC,N,,"BASELINE, ANY DAY PRIOR TO FIRST DOSE",0,2001,-15,DURING/AFTER
NIDA-CTN-0002,MH,02_012064,SCREENING,13,8,MUSCULOSKELETAL,N,,"BASELINE, ANY DAY PRIOR TO FIRST DOSE",0,2001,-15,BEFORE
NIDA-CTN-0002,MH,02_012064,SCREENING,14,8,MUSCULOSKELETAL,N,,"BASELINE, ANY DAY PRIOR TO FIRST DOSE",0,2001,-15,DURING/AFTER
NIDA-CTN-0002,MH,02_012064,SCREENING,25,14,NEUROLOGICAL,N,,"BASELINE, ANY DAY PRIOR TO FIRST DOSE",0,2001,-15,BEFORE
NIDA-CTN-0002,MH,02_012064,SCREENING,26,14,NEUROLOGICAL,N,,"BASELINE, ANY DAY PRIOR TO FIRST DOSE",0,2001,-15,DURING/AFTER
NIDA-CTN-0002,MH,02_012064,SCREENING,31,17,OTHER,,NOT DONE,"BASELINE, ANY DAY PRIOR TO FIRST DOSE",0,2001,-15,
NIDA-CTN-0002,MH,02_012064,SCREENING,23,13,PSYCHIATRIC,N,,"BASELINE, ANY DAY PRIOR TO FIRST DOSE",0,2001,-15,BEFORE
NIDA-CTN-0002,MH,02_012064,SCREENING,24,13,PSYCHIATRIC,N,,"BASELINE, ANY DAY PRIOR TO FIRST DOSE",0,2001,-15,DURING/AFTER
NIDA-CTN-0002,MH,02_012064,SCREENING,7,4,RESPIRATORY,N,,"BASELINE, ANY DAY PRIOR TO FIRST DOSE",0,2001,-15,BEFORE
NIDA-CTN-0002,MH,02_012064,SCREENING,8,4,RESPIRATORY,N,,"BASELINE, ANY DAY PRIOR TO FIRST DOSE",0,2001,-15,DURING/AFTER
NIDA-CTN-0002,MH,02_012064,SCREENING,27,15,SEIZURE,N,,"BASELINE, ANY DAY PRIOR TO FIRST DOSE",0,2001,-15,BEFORE
NIDA-CTN-0002,MH,02_012064,SCREENING,28,15,SEIZURE,N,,"BASELINE, ANY DAY PRIOR TO FIRST DOSE",0,2001,-15,DURING/AFTER
NIDA-CTN-0002,MH,02_012064,SCREENING,11,7,SYMPTOMS OF TB,N,,"BASELINE, ANY DAY PRIOR TO FIRST DOSE",0,2001,-15,BEFORE
NIDA-CTN-0002,MH,02_012064,SCREENING,12,7,SYMPTOMS OF TB,N,,"BASELINE, ANY DAY PRIOR TO FIRST DOSE",0,2001,-15,DURING/AFTER
NIDA-CTN-0002,MH,02_012064,SCREENING,9,5,TB SKIN TEST POSITIVE,,NOT DONE,"BASELINE, ANY DAY PRIOR TO FIRST DOSE",0,2001,-15,
NIDA-CTN-0002,MH,02_012064,SCREENING,10,6,X-RAY POSITIVE FOR TB,,NOT DONE,"BASELINE, ANY DAY PRIOR TO FIRST DOSE",0,2001,-15,
NIDA-CTN-0002,MH,02_012721,SCREENING,29,16,ALLERGIES,N,,"BASELINE, ANY DAY PRIOR TO FIRST DOSE",0,2001,-1,BEFORE
NIDA-CTN-0002,MH,02_012721,SCREENING,30,16,ALLERGIES,N,,"BASELINE, ANY DAY PRIOR TO FIRST DOSE",0,2001,-1,DURING/AFTER
NIDA-CTN-0002,MH,02_012721,SCREENING,5,3,CARDIOVASCULAR,N,,"BASELINE, ANY DAY PRIOR TO FIRST DOSE",0,2001,-1,BEFORE
NIDA-CTN-0002,MH,02_012721,SCREENING,6,3,CARDIOVASCULAR,N,,"BASELINE, ANY DAY PRIOR TO FIRST DOSE",0,2001,-1,DURING/AFTER
NIDA-CTN-0002,MH,02_012721,SCREENING,1,1,DERMATOLOGICAL,N,,"BASELINE, ANY DAY PRIOR TO FIRST DOSE",0,2001,-1,BEFORE
NIDA-CTN-0002,MH,02_012721,SCREENING,2,1,DERMATOLOGICAL,N,,"BASELINE, ANY DAY PRIOR TO FIRST DOSE",0,2001,-1,DURING/AFTER
NIDA-CTN-0002,MH,02_012721,SCREENING,21,12,ENDOCRINE,N,,"BASELINE, ANY DAY PRIOR TO FIRST DOSE",0,2001,-1,BEFORE
NIDA-CTN-0002,MH,02_012721,SCREENING,22,12,ENDOCRINE,N,,"BASELINE, ANY DAY PRIOR TO FIRST DOSE",0,2001,-1,DURING/AFTER
NIDA-CTN-0002,MH,02_012721,SCREENING,3,2,"EYES, EARS, NOSE, AND THROAT",N,,"BASELINE, ANY DAY PRIOR TO FIRST DOSE",0,2001,-1,BEFORE
NIDA-CTN-0002,MH,02_012721,SCREENING,4,2,"EYES, EARS, NOSE, AND THROAT",N,,"BASELINE, ANY DAY PRIOR TO FIRST DOSE",0,2001,-1,DURING/AFTER
NIDA-CTN-0002,MH,02_012721,SCREENING,15,9,GASTROINTESTINAL,N,,"BASELINE, ANY DAY PRIOR TO FIRST DOSE",0,2001,-1,BEFORE
NIDA-CTN-0002,MH,02_012721,SCREENING,16,9,GASTROINTESTINAL,N,,"BASELINE, ANY DAY PRIOR TO FIRST DOSE",0,2001,-1,DURING/AFTER
NIDA-CTN-0002,MH,02_012721,SCREENING,19,11,GENITOURINARY,N,,"BASELINE, ANY DAY PRIOR TO FIRST DOSE",0,2001,-1,BEFORE
NIDA-CTN-0002,MH,02_012721,SCREENING,20,11,GENITOURINARY,N,,"BASELINE, ANY DAY PRIOR TO FIRST DOSE",0,2001,-1,DURING/AFTER
NIDA-CTN-0002,MH,02_012721,SCREENING,17,10,HEPATIC,N,,"BASELINE, ANY DAY PRIOR TO FIRST DOSE",0,2001,-1,BEFORE
NIDA-CTN-0002,MH,02_012721,SCREENING,18,10,HEPATIC,N,,"BASELINE, ANY DAY PRIOR TO FIRST DOSE",0,2001,-1,DURING/AFTER
NIDA-CTN-0002,MH,02_012721,SCREENING,13,8,MUSCULOSKELETAL,N,,"BASELINE, ANY DAY PRIOR TO FIRST DOSE",0,2001,-1,BEFORE
NIDA-CTN-0002,MH,02_012721,SCREENING,14,8,MUSCULOSKELETAL,N,,"BASELINE, ANY DAY PRIOR TO FIRST DOSE",0,2001,-1,DURING/AFTER
NIDA-CTN-0002,MH,02_012721,SCREENING,25,14,NEUROLOGICAL,N,,"BASELINE, ANY DAY PRIOR TO FIRST DOSE",0,2001,-1,BEFORE
NIDA-CTN-0002,MH,02_012721,SCREENING,26,14,NEUROLOGICAL,N,,"BASELINE, ANY DAY PRIOR TO FIRST DOSE",0,2001,-1,DURING/AFTER
NIDA-CTN-0002,MH,02_012721,SCREENING,31,17,OTHER,,NOT DONE,"BASELINE, ANY DAY PRIOR TO FIRST DOSE",0,2001,-1,
NIDA-CTN-0002,MH,02_012721,SCREENING,23,13,PSYCHIATRIC,N,,"BASELINE, ANY DAY PRIOR TO FIRST DOSE",0,2001,-1,BEFORE
NIDA-CTN-0002,MH,02_012721,SCREENING,24,13,PSYCHIATRIC,N,,"BASELINE, ANY DAY PRIOR TO FIRST DOSE",0,2001,-1,DURING/AFTER
NIDA-CTN-0002,MH,02_012721,SCREENING,7,4,RESPIRATORY,N,,"BASELINE, ANY DAY PRIOR TO FIRST DOSE",0,2001,-1,BEFORE
NIDA-CTN-0002,MH,02_012721,SCREENING,8,4,RESPIRATORY,N,,"BASELINE, ANY DAY PRIOR TO FIRST DOSE",0,2001,-1,DURING/AFTER
NIDA-CTN-0002,MH,02_012721,SCREENING,27,15,SEIZURE,N,,"BASELINE, ANY DAY PRIOR TO FIRST DOSE",0,2001,-1,BEFORE
NIDA-CTN-0002,MH,02_012721,SCREENING,28,15,SEIZURE,N,,"BASELINE, ANY DAY PRIOR TO FIRST DOSE",0,2001,-1,DURING/AFTER
NIDA-CTN-0002,MH,02_012721,SCREENING,11,7,SYMPTOMS OF TB,N,,"BASELINE, ANY DAY PRIOR TO FIRST DOSE",0,2001,-1,BEFORE
NIDA-CTN-0002,MH,02_012721,SCREENING,12,7,SYMPTOMS OF TB,N,,"BASELINE, ANY DAY PRIOR TO FIRST DOSE",0,2001,-1,DURING/AFTER
NIDA-CTN-0002,MH,02_012721,SCREENING,9,5,TB SKIN TEST POSITIVE,,NOT DONE,"BASELINE, ANY DAY PRIOR TO FIRST DOSE",0,2001,-1,
NIDA-CTN-0002,MH,02_012721,SCREENING,10,6,X-RAY POSITIVE FOR TB,,NOT DONE,"BASELINE, ANY DAY PRIOR TO FIRST DOSE",0,2001,-1,
NIDA-CTN-0002,MH,02_013283,SCREENING,31,16,ALLERGIES,N,,"BASELINE, ANY DAY PRIOR TO FIRST DOSE",0,2001,1,BEFORE
NIDA-CTN-0002,MH,02_013283,SCREENING,32,16,ALLERGIES,N,,"BASELINE, ANY DAY PRIOR TO FIRST DOSE",0,2001,1,DURING/AFTER
NIDA-CTN-0002,MH,02_013283,SCREENING,5,3,CARDIOVASCULAR,N,,"BASELINE, ANY DAY PRIOR TO FIRST DOSE",0,2001,1,BEFORE
NIDA-CTN-0002,MH,02_013283,SCREENING,6,3,CARDIOVASCULAR,N,,"BASELINE, ANY DAY PRIOR TO FIRST DOSE",0,2001,1,DURING/AFTER
NIDA-CTN-0002,MH,02_013283,SCREENING,1,1,DERMATOLOGICAL,N,,"BASELINE, ANY DAY PRIOR TO FIRST DOSE",0,2001,1,BEFORE
NIDA-CTN-0002,MH,02_013283,SCREENING,2,1,DERMATOLOGICAL,N,,"BASELINE, ANY DAY PRIOR TO FIRST DOSE",0,2001,1,DURING/AFTER
NIDA-CTN-0002,MH,02_013283,SCREENING,23,12,ENDOCRINE,N,,"BASELINE, ANY DAY PRIOR TO FIRST DOSE",0,2001,1,BEFORE
NIDA-CTN-0002,MH,02_013283,SCREENING,24,12,ENDOCRINE,N,,"BASELINE, ANY DAY PRIOR TO FIRST DOSE",0,2001,1,DURING/AFTER
NIDA-CTN-0002,MH,02_013283,SCREENING,3,2,"EYES, EARS, NOSE, AND THROAT",N,,"BASELINE, ANY DAY PRIOR TO FIRST DOSE",0,2001,1,BEFORE
NIDA-CTN-0002,MH,02_013283,SCREENING,4,2,"EYES, EARS, NOSE, AND THROAT",N,,"BASELINE, ANY DAY PRIOR TO FIRST DOSE",0,2001,1,DURING/AFTER
NIDA-CTN-0002,MH,02_013283,SCREENING,17,9,GASTROINTESTINAL,N,,"BASELINE, ANY DAY PRIOR TO FIRST DOSE",0,2001,1,BEFORE
NIDA-CTN-0002,MH,02_013283,SCREENING,18,9,GASTROINTESTINAL,N,,"BASELINE, ANY DAY PRIOR TO FIRST DOSE",0,2001,1,DURING/AFTER
NIDA-CTN-0002,MH,02_013283,SCREENING,21,11,GENITOURINARY,N,,"BASELINE, ANY DAY PRIOR TO FIRST DOSE",0,2001,1,BEFORE
NIDA-CTN-0002,MH,02_013283,SCREENING,22,11,GENITOURINARY,Y,,"BASELINE, ANY DAY PRIOR TO FIRST DOSE",0,2001,1,DURING/AFTER
NIDA-CTN-0002,MH,02_013283,SCREENING,19,10,HEPATIC,N,,"BASELINE, ANY DAY PRIOR TO FIRST DOSE",0,2001,1,BEFORE
NIDA-CTN-0002,MH,02_013283,SCREENING,20,10,HEPATIC,N,,"BASELINE, ANY DAY PRIOR TO FIRST DOSE",0,2001,1,DURING/AFTER
NIDA-CTN-0002,MH,02_013283,SCREENING,15,8,MUSCULOSKELETAL,N,,"BASELINE, ANY DAY PRIOR TO FIRST DOSE",0,2001,1,BEFORE
NIDA-CTN-0002,MH,02_013283,SCREENING,16,8,MUSCULOSKELETAL,N,,"BASELINE, ANY DAY PRIOR TO FIRST DOSE",0,2001,1,DURING/AFTER
NIDA-CTN-0002,MH,02_013283,SCREENING,27,14,NEUROLOGICAL,N,,"BASELINE, ANY DAY PRIOR TO FIRST DOSE",0,2001,1,BEFORE
NIDA-CTN-0002,MH,02_013283,SCREENING,28,14,NEUROLOGICAL,N,,"BASELINE, ANY DAY PRIOR TO FIRST DOSE",0,2001,1,DURING/AFTER
NIDA-CTN-0002,MH,02_013283,SCREENING,33,17,OTHER,N,,"BASELINE, ANY DAY PRIOR TO FIRST DOSE",0,2001,1,BEFORE
NIDA-CTN-0002,MH,02_013283,SCREENING,34,17,OTHER,N,,"BASELINE, ANY DAY PRIOR TO FIRST DOSE",0,2001,1,DURING/AFTER
NIDA-CTN-0002,MH,02_013283,SCREENING,25,13,PSYCHIATRIC,N,,"BASELINE, ANY DAY PRIOR TO FIRST DOSE",0,2001,1,BEFORE
NIDA-CTN-0002,MH,02_013283,SCREENING,26,13,PSYCHIATRIC,N,,"BASELINE, ANY DAY PRIOR TO FIRST DOSE",0,2001,1,DURING/AFTER
NIDA-CTN-0002,MH,02_013283,SCREENING,7,4,RESPIRATORY,N,,"BASELINE, ANY DAY PRIOR TO FIRST DOSE",0,2001,1,BEFORE
NIDA-CTN-0002,MH,02_013283,SCREENING,8,4,RESPIRATORY,N,,"BASELINE, ANY DAY PRIOR TO FIRST DOSE",0,2001,1,DURING/AFTER
NIDA-CTN-0002,MH,02_013283,SCREENING,29,15,SEIZURE,N,,"BASELINE, ANY DAY PRIOR TO FIRST DOSE",0,2001,1,BEFORE
NIDA-CTN-0002,MH,02_013283,SCREENING,30,15,SEIZURE,N,,"BASELINE, ANY DAY PRIOR TO FIRST DOSE",0,2001,1,DURING/AFTER
NIDA-CTN-0002,MH,02_013283,SCREENING,13,7,SYMPTOMS OF TB,N,,"BASELINE, ANY DAY PRIOR TO FIRST DOSE",0,2001,1,BEFORE
NIDA-CTN-0002,MH,02_013283,SCREENING,14,7,SYMPTOMS OF TB,N,,"BASELINE, ANY DAY PRIOR TO FIRST DOSE",0,2001,1,DURING/AFTER
NIDA-CTN-0002,MH,02_013283,SCREENING,9,5,TB SKIN TEST POSITIVE,N,,"BASELINE, ANY DAY PRIOR TO FIRST DOSE",0,2001,1,BEFORE
NIDA-CTN-0002,MH,02_013283,SCREENING,10,5,TB SKIN TEST POSITIVE,N,,"BASELINE, ANY DAY PRIOR TO FIRST DOSE",0,2001,1,DURING/AFTER
NIDA-CTN-0002,MH,02_013283,SCREENING,11,6,X-RAY POSITIVE FOR TB,N,,"BASELINE, ANY DAY PRIOR TO FIRST DOSE",0,2001,1,BEFORE
NIDA-CTN-0002,MH,02_013283,SCREENING,12,6,X-RAY POSITIVE FOR TB,N,,"BASELINE, ANY DAY PRIOR TO FIRST DOSE",0,2001,1,DURING/AFTER
NIDA-CTN-0002,MH,02_013342,SCREENING,16,16,ALLERGIES,Y,,"BASELINE, ANY DAY PRIOR TO FIRST DOSE",0,2001," ",BEFORE
NIDA-CTN-0002,MH,02_013342,SCREENING,17,16,ALLERGIES,Y,,"BASELINE, ANY DAY PRIOR TO FIRST DOSE",0,2001," ",DURING/AFTER
NIDA-CTN-0002,MH,02_013342,SCREENING,3,3,CARDIOVASCULAR,N,,"BASELINE, ANY DAY PRIOR TO FIRST DOSE",0,2001," ",BEFORE
NIDA-CTN-0002,MH,02_013342,SCREENING,1,1,DERMATOLOGICAL,N,,"BASELINE, ANY DAY PRIOR TO FIRST DOSE",0,2001," ",BEFORE
NIDA-CTN-0002,MH,02_013342,SCREENING,12,12,ENDOCRINE,N,,"BASELINE, ANY DAY PRIOR TO FIRST DOSE",0,2001," ",BEFORE
NIDA-CTN-0002,MH,02_013342,SCREENING,2,2,"EYES, EARS, NOSE, AND THROAT",N,,"BASELINE, ANY DAY PRIOR TO FIRST DOSE",0,2001," ",BEFORE
NIDA-CTN-0002,MH,02_013342,SCREENING,9,9,GASTROINTESTINAL,N,,"BASELINE, ANY DAY PRIOR TO FIRST DOSE",0,2001," ",BEFORE
NIDA-CTN-0002,MH,02_013342,SCREENING,11,11,GENITOURINARY,N,,"BASELINE, ANY DAY PRIOR TO FIRST DOSE",0,2001," ",BEFORE
NIDA-CTN-0002,MH,02_013342,SCREENING,10,10,HEPATIC,N,,"BASELINE, ANY DAY PRIOR TO FIRST DOSE",0,2001," ",BEFORE
NIDA-CTN-0002,MH,02_013342,SCREENING,8,8,MUSCULOSKELETAL,N,,"BASELINE, ANY DAY PRIOR TO FIRST DOSE",0,2001," ",BEFORE
NIDA-CTN-0002,MH,02_013342,SCREENING,14,14,NEUROLOGICAL,N,,"BASELINE, ANY DAY PRIOR TO FIRST DOSE",0,2001," ",BEFORE
NIDA-CTN-0002,MH,02_013342,SCREENING,13,13,PSYCHIATRIC,N,,"BASELINE, ANY DAY PRIOR TO FIRST DOSE",0,2001," ",BEFORE
NIDA-CTN-0002,MH,02_013342,SCREENING,4,4,RESPIRATORY,N,,"BASELINE, ANY DAY PRIOR TO FIRST DOSE",0,2001," ",BEFORE
NIDA-CTN-0002,MH,02_013342,SCREENING,15,15,SEIZURE,N,,"BASELINE, ANY DAY PRIOR TO FIRST DOSE",0,2001," ",BEFORE
NIDA-CTN-0002,MH,02_013342,SCREENING,7,7,SYMPTOMS OF TB,N,,"BASELINE, ANY DAY PRIOR TO FIRST DOSE",0,2001," ",BEFORE
NIDA-CTN-0002,MH,02_013342,SCREENING,5,5,TB SKIN TEST POSITIVE,N,,"BASELINE, ANY DAY PRIOR TO FIRST DOSE",0,2001," ",BEFORE
NIDA-CTN-0002,MH,02_013342,SCREENING,6,6,X-RAY POSITIVE FOR TB,N,,"BASELINE, ANY DAY PRIOR TO FIRST DOSE",0,2001," ",BEFORE
NIDA-CTN-0002,MH,02_013437,SCREENING,30,16,ALLERGIES,N,,"BASELINE, ANY DAY PRIOR TO FIRST DOSE",0,2001,-1,BEFORE
NIDA-CTN-0002,MH,02_013437,SCREENING,31,16,ALLERGIES,N,,"BASELINE, ANY DAY PRIOR TO FIRST DOSE",0,2001,-1,DURING/AFTER
NIDA-CTN-0002,MH,02_013437,SCREENING,5,3,CARDIOVASCULAR,N,,"BASELINE, ANY DAY PRIOR TO FIRST DOSE",0,2001,-1,BEFORE
NIDA-CTN-0002,MH,02_013437,SCREENING,6,3,CARDIOVASCULAR,N,,"BASELINE, ANY DAY PRIOR TO FIRST DOSE",0,2001,-1,DURING/AFTER
NIDA-CTN-0002,MH,02_013437,SCREENING,1,1,DERMATOLOGICAL,Y,,"BASELINE, ANY DAY PRIOR TO FIRST DOSE",0,2001,-1,BEFORE
NIDA-CTN-0002,MH,02_013437,SCREENING,2,1,DERMATOLOGICAL,Y,,"BASELINE, ANY DAY PRIOR TO FIRST DOSE",0,2001,-1,DURING/AFTER
NIDA-CTN-0002,MH,02_013437,SCREENING,22,12,ENDOCRINE,N,,"BASELINE, ANY DAY PRIOR TO FIRST DOSE",0,2001,-1,BEFORE
NIDA-CTN-0002,MH,02_013437,SCREENING,23,12,ENDOCRINE,N,,"BASELINE, ANY DAY PRIOR TO FIRST DOSE",0,2001,-1,DURING/AFTER
NIDA-CTN-0002,MH,02_013437,SCREENING,3,2,"EYES, EARS, NOSE, AND THROAT",Y,,"BASELINE, ANY DAY PRIOR TO FIRST DOSE",0,2001,-1,BEFORE
NIDA-CTN-0002,MH,02_013437,SCREENING,4,2,"EYES, EARS, NOSE, AND THROAT",Y,,"BASELINE, ANY DAY PRIOR TO FIRST DOSE",0,2001,-1,DURING/AFTER
NIDA-CTN-0002,MH,02_013437,SCREENING,16,9,GASTROINTESTINAL,N,,"BASELINE, ANY DAY PRIOR TO FIRST DOSE",0,2001,-1,BEFORE
NIDA-CTN-0002,MH,02_013437,SCREENING,17,9,GASTROINTESTINAL,N,,"BASELINE, ANY DAY PRIOR TO FIRST DOSE",0,2001,-1,DURING/AFTER
NIDA-CTN-0002,MH,02_013437,SCREENING,20,11,GENITOURINARY,N,,"BASELINE, ANY DAY PRIOR TO FIRST DOSE",0,2001,-1,BEFORE
NIDA-CTN-0002,MH,02_013437,SCREENING,21,11,GENITOURINARY,N,,"BASELINE, ANY DAY PRIOR TO FIRST DOSE",0,2001,-1,DURING/AFTER
NIDA-CTN-0002,MH,02_013437,SCREENING,18,10,HEPATIC,Y,,"BASELINE, ANY DAY PRIOR TO FIRST DOSE",0,2001,-1,BEFORE
NIDA-CTN-0002,MH,02_013437,SCREENING,19,10,HEPATIC,Y,,"BASELINE, ANY DAY PRIOR TO FIRST DOSE",0,2001,-1,DURING/AFTER
NIDA-CTN-0002,MH,02_013437,SCREENING,14,8,MUSCULOSKELETAL,Y,,"BASELINE, ANY DAY PRIOR TO FIRST DOSE",0,2001,-1,BEFORE
NIDA-CTN-0002,MH,02_013437,SCREENING,15,8,MUSCULOSKELETAL,Y,,"BASELINE, ANY DAY PRIOR TO FIRST DOSE",0,2001,-1,DURING/AFTER
NIDA-CTN-0002,MH,02_013437,SCREENING,26,14,NEUROLOGICAL,N,,"BASELINE, ANY DAY PRIOR TO FIRST DOSE",0,2001,-1,BEFORE
NIDA-CTN-0002,MH,02_013437,SCREENING,27,14,NEUROLOGICAL,N,,"BASELINE, ANY DAY PRIOR TO FIRST DOSE",0,2001,-1,DURING/AFTER
NIDA-CTN-0002,MH,02_013437,SCREENING,32,17,OTHER,N,,"BASELINE, ANY DAY PRIOR TO FIRST DOSE",0,2001,-1,BEFORE
NIDA-CTN-0002,MH,02_013437,SCREENING,33,17,OTHER,N,,"BASELINE, ANY DAY PRIOR TO FIRST DOSE",0,2001,-1,DURING/AFTER
NIDA-CTN-0002,MH,02_013437,SCREENING,24,13,PSYCHIATRIC,Y,,"BASELINE, ANY DAY PRIOR TO FIRST DOSE",0,2001,-1,BEFORE
NIDA-CTN-0002,MH,02_013437,SCREENING,25,13,PSYCHIATRIC,Y,,"BASELINE, ANY DAY PRIOR TO FIRST DOSE",0,2001,-1,DURING/AFTER
NIDA-CTN-0002,MH,02_013437,SCREENING,7,4,RESPIRATORY,N,,"BASELINE, ANY DAY PRIOR TO FIRST DOSE",0,2001,-1,BEFORE
NIDA-CTN-0002,MH,02_013437,SCREENING,8,4,RESPIRATORY,N,,"BASELINE, ANY DAY PRIOR TO FIRST DOSE",0,2001,-1,DURING/AFTER
NIDA-CTN-0002,MH,02_013437,SCREENING,28,15,SEIZURE,N,,"BASELINE, ANY DAY PRIOR TO FIRST DOSE",0,2001,-1,BEFORE
NIDA-CTN-0002,MH,02_013437,SCREENING,29,15,SEIZURE,N,,"BASELINE, ANY DAY PRIOR TO FIRST DOSE",0,2001,-1,DURING/AFTER
NIDA-CTN-0002,MH,02_013437,SCREENING,12,7,SYMPTOMS OF TB,N,,"BASELINE, ANY DAY PRIOR TO FIRST DOSE",0,2001,-1,BEFORE
NIDA-CTN-0002,MH,02_013437,SCREENING,13,7,SYMPTOMS OF TB,N,,"BASELINE, ANY DAY PRIOR TO FIRST DOSE",0,2001,-1,DURING/AFTER
NIDA-CTN-0002,MH,02_013437,SCREENING,9,5,TB SKIN TEST POSITIVE,N,,"BASELINE, ANY DAY PRIOR TO FIRST DOSE",0,2001,-1,BEFORE
NIDA-CTN-0002,MH,02_013437,SCREENING,10,5,TB SKIN TEST POSITIVE,N,,"BASELINE, ANY DAY PRIOR TO FIRST DOSE",0,2001,-1,DURING/AFTER
NIDA-CTN-0002,MH,02_013437,SCREENING,11,6,X-RAY POSITIVE FOR TB,,NOT DONE,"BASELINE, ANY DAY PRIOR TO FIRST DOSE",0,2001,-1,
NIDA-CTN-0002,MH,02_013991,SCREENING,30,16,ALLERGIES,N,,"BASELINE, ANY DAY PRIOR TO FIRST DOSE",0,2001,1,BEFORE
NIDA-CTN-0002,MH,02_013991,SCREENING,31,16,ALLERGIES,N,,"BASELINE, ANY DAY PRIOR TO FIRST DOSE",0,2001,1,DURING/AFTER
NIDA-CTN-0002,MH,02_013991,SCREENING,5,3,CARDIOVASCULAR,N,,"BASELINE, ANY DAY PRIOR TO FIRST DOSE",0,2001,1,BEFORE
NIDA-CTN-0002,MH,02_013991,SCREENING,6,3,CARDIOVASCULAR,N,,"BASELINE, ANY DAY PRIOR TO FIRST DOSE",0,2001,1,DURING/AFTER
NIDA-CTN-0002,MH,02_013991,SCREENING,1,1,DERMATOLOGICAL,N,,"BASELINE, ANY DAY PRIOR TO FIRST DOSE",0,2001,1,BEFORE
NIDA-CTN-0002,MH,02_013991,SCREENING,2,1,DERMATOLOGICAL,N,,"BASELINE, ANY DAY PRIOR TO FIRST DOSE",0,2001,1,DURING/AFTER
NIDA-CTN-0002,MH,02_013991,SCREENING,22,12,ENDOCRINE,N,,"BASELINE, ANY DAY PRIOR TO FIRST DOSE",0,2001,1,BEFORE
NIDA-CTN-0002,MH,02_013991,SCREENING,23,12,ENDOCRINE,N,,"BASELINE, ANY DAY PRIOR TO FIRST DOSE",0,2001,1,DURING/AFTER
NIDA-CTN-0002,MH,02_013991,SCREENING,3,2,"EYES, EARS, NOSE, AND THROAT",N,,"BASELINE, ANY DAY PRIOR TO FIRST DOSE",0,2001,1,BEFORE
NIDA-CTN-0002,MH,02_013991,SCREENING,4,2,"EYES, EARS, NOSE, AND THROAT",N,,"BASELINE, ANY DAY PRIOR TO FIRST DOSE",0,2001,1,DURING/AFTER
NIDA-CTN-0002,MH,02_013991,SCREENING,16,9,GASTROINTESTINAL,N,,"BASELINE, ANY DAY PRIOR TO FIRST DOSE",0,2001,1,BEFORE
NIDA-CTN-0002,MH,02_013991,SCREENING,17,9,GASTROINTESTINAL,N,,"BASELINE, ANY DAY PRIOR TO FIRST DOSE",0,2001,1,DURING/AFTER
NIDA-CTN-0002,MH,02_013991,SCREENING,20,11,GENITOURINARY,N,,"BASELINE, ANY DAY PRIOR TO FIRST DOSE",0,2001,1,BEFORE
NIDA-CTN-0002,MH,02_013991,SCREENING,21,11,GENITOURINARY,N,,"BASELINE, ANY DAY PRIOR TO FIRST DOSE",0,2001,1,DURING/AFTER
NIDA-CTN-0002,MH,02_013991,SCREENING,18,10,HEPATIC,N,,"BASELINE, ANY DAY PRIOR TO FIRST DOSE",0,2001,1,BEFORE
NIDA-CTN-0002,MH,02_013991,SCREENING,19,10,HEPATIC,N,,"BASELINE, ANY DAY PRIOR TO FIRST DOSE",0,2001,1,DURING/AFTER
NIDA-CTN-0002,MH,02_013991,SCREENING,14,8,MUSCULOSKELETAL,N,,"BASELINE, ANY DAY PRIOR TO FIRST DOSE",0,2001,1,BEFORE
NIDA-CTN-0002,MH,02_013991,SCREENING,15,8,MUSCULOSKELETAL,N,,"BASELINE, ANY DAY PRIOR TO FIRST DOSE",0,2001,1,DURING/AFTER
NIDA-CTN-0002,MH,02_013991,SCREENING,26,14,NEUROLOGICAL,N,,"BASELINE, ANY DAY PRIOR TO FIRST DOSE",0,2001,1,BEFORE
NIDA-CTN-0002,MH,02_013991,SCREENING,27,14,NEUROLOGICAL,N,,"BASELINE, ANY DAY PRIOR TO FIRST DOSE",0,2001,1,DURING/AFTER
NIDA-CTN-0002,MH,02_013991,SCREENING,32,17,OTHER,,NOT DONE,"BASELINE, ANY DAY PRIOR TO FIRST DOSE",0,2001,1,
NIDA-CTN-0002,MH,02_013991,SCREENING,24,13,PSYCHIATRIC,N,,"BASELINE, ANY DAY PRIOR TO FIRST DOSE",0,2001,1,BEFORE
NIDA-CTN-0002,MH,02_013991,SCREENING,25,13,PSYCHIATRIC,N,,"BASELINE, ANY DAY PRIOR TO FIRST DOSE",0,2001,1,DURING/AFTER
NIDA-CTN-0002,MH,02_013991,SCREENING,7,4,RESPIRATORY,N,,"BASELINE, ANY DAY PRIOR TO FIRST DOSE",0,2001,1,BEFORE
NIDA-CTN-0002,MH,02_013991,SCREENING,8,4,RESPIRATORY,N,,"BASELINE, ANY DAY PRIOR TO FIRST DOSE",0,2001,1,DURING/AFTER
NIDA-CTN-0002,MH,02_013991,SCREENING,28,15,SEIZURE,N,,"BASELINE, ANY DAY PRIOR TO FIRST DOSE",0,2001,1,BEFORE
NIDA-CTN-0002,MH,02_013991,SCREENING,29,15,SEIZURE,N,,"BASELINE, ANY DAY PRIOR TO FIRST DOSE",0,2001,1,DURING/AFTER
NIDA-CTN-0002,MH,02_013991,SCREENING,12,7,SYMPTOMS OF TB,N,,"BASELINE, ANY DAY PRIOR TO FIRST DOSE",0,2001,1,BEFORE
NIDA-CTN-0002,MH,02_013991,SCREENING,13,7,SYMPTOMS OF TB,N,,"BASELINE, ANY DAY PRIOR TO FIRST DOSE",0,2001,1,DURING/AFTER
NIDA-CTN-0002,MH,02_013991,SCREENING,9,5,TB SKIN TEST POSITIVE,N,,"BASELINE, ANY DAY PRIOR TO FIRST DOSE",0,2001,1,BEFORE
NIDA-CTN-0002,MH,02_013991,SCREENING,10,5,TB SKIN TEST POSITIVE,N,,"BASELINE, ANY DAY PRIOR TO FIRST DOSE",0,2001,1,DURING/AFTER
NIDA-CTN-0002,MH,02_013991,SCREENING,11,6,X-RAY POSITIVE FOR TB,,NOT DONE,"BASELINE, ANY DAY PRIOR TO FIRST DOSE",0,2001,1,
NIDA-CTN-0002,MH,02_014076,SCREENING,31,16,ALLERGIES,N,,"BASELINE, ANY DAY PRIOR TO FIRST DOSE",0,2001," ",BEFORE
NIDA-CTN-0002,MH,02_014076,SCREENING,32,16,ALLERGIES,N,,"BASELINE, ANY DAY PRIOR TO FIRST DOSE",0,2001," ",DURING/AFTER
NIDA-CTN-0002,MH,02_014076,SCREENING,5,3,CARDIOVASCULAR,N,,"BASELINE, ANY DAY PRIOR TO FIRST DOSE",0,2001," ",BEFORE
NIDA-CTN-0002,MH,02_014076,SCREENING,6,3,CARDIOVASCULAR,N,,"BASELINE, ANY DAY PRIOR TO FIRST DOSE",0,2001," ",DURING/AFTER
NIDA-CTN-0002,MH,02_014076,SCREENING,1,1,DERMATOLOGICAL,N,,"BASELINE, ANY DAY PRIOR TO FIRST DOSE",0,2001," ",BEFORE
NIDA-CTN-0002,MH,02_014076,SCREENING,2,1,DERMATOLOGICAL,N,,"BASELINE, ANY DAY PRIOR TO FIRST DOSE",0,2001," ",DURING/AFTER
NIDA-CTN-0002,MH,02_014076,SCREENING,23,12,ENDOCRINE,N,,"BASELINE, ANY DAY PRIOR TO FIRST DOSE",0,2001," ",BEFORE
NIDA-CTN-0002,MH,02_014076,SCREENING,24,12,ENDOCRINE,N,,"BASELINE, ANY DAY PRIOR TO FIRST DOSE",0,2001," ",DURING/AFTER
NIDA-CTN-0002,MH,02_014076,SCREENING,3,2,"EYES, EARS, NOSE, AND THROAT",Y,,"BASELINE, ANY DAY PRIOR TO FIRST DOSE",0,2001," ",BEFORE
NIDA-CTN-0002,MH,02_014076,SCREENING,4,2,"EYES, EARS, NOSE, AND THROAT",N,,"BASELINE, ANY DAY PRIOR TO FIRST DOSE",0,2001," ",DURING/AFTER
NIDA-CTN-0002,MH,02_014076,SCREENING,17,9,GASTROINTESTINAL,N,,"BASELINE, ANY DAY PRIOR TO FIRST DOSE",0,2001," ",BEFORE
NIDA-CTN-0002,MH,02_014076,SCREENING,18,9,GASTROINTESTINAL,N,,"BASELINE, ANY DAY PRIOR TO FIRST DOSE",0,2001," ",DURING/AFTER
NIDA-CTN-0002,MH,02_014076,SCREENING,21,11,GENITOURINARY,N,,"BASELINE, ANY DAY PRIOR TO FIRST DOSE",0,2001," ",BEFORE
NIDA-CTN-0002,MH,02_014076,SCREENING,22,11,GENITOURINARY,N,,"BASELINE, ANY DAY PRIOR TO FIRST DOSE",0,2001," ",DURING/AFTER
NIDA-CTN-0002,MH,02_014076,SCREENING,19,10,HEPATIC,Y,,"BASELINE, ANY DAY PRIOR TO FIRST DOSE",0,2001," ",BEFORE
NIDA-CTN-0002,MH,02_014076,SCREENING,20,10,HEPATIC,N,,"BASELINE, ANY DAY PRIOR TO FIRST DOSE",0,2001," ",DURING/AFTER
NIDA-CTN-0002,MH,02_014076,SCREENING,15,8,MUSCULOSKELETAL,Y,,"BASELINE, ANY DAY PRIOR TO FIRST DOSE",0,2001," ",BEFORE
NIDA-CTN-0002,MH,02_014076,SCREENING,16,8,MUSCULOSKELETAL,N,,"BASELINE, ANY DAY PRIOR TO FIRST DOSE",0,2001," ",DURING/AFTER
NIDA-CTN-0002,MH,02_014076,SCREENING,27,14,NEUROLOGICAL,N,,"BASELINE, ANY DAY PRIOR TO FIRST DOSE",0,2001," ",BEFORE
NIDA-CTN-0002,MH,02_014076,SCREENING,28,14,NEUROLOGICAL,N,,"BASELINE, ANY DAY PRIOR TO FIRST DOSE",0,2001," ",DURING/AFTER
NIDA-CTN-0002,MH,02_014076,SCREENING,33,17,OTHER,,NOT DONE,"BASELINE, ANY DAY PRIOR TO FIRST DOSE",0,2001," ",
NIDA-CTN-0002,MH,02_014076,SCREENING,25,13,PSYCHIATRIC,N,,"BASELINE, ANY DAY PRIOR TO FIRST DOSE",0,2001," ",BEFORE
NIDA-CTN-0002,MH,02_014076,SCREENING,26,13,PSYCHIATRIC,N,,"BASELINE, ANY DAY PRIOR TO FIRST DOSE",0,2001," ",DURING/AFTER
NIDA-CTN-0002,MH,02_014076,SCREENING,7,4,RESPIRATORY,N,,"BASELINE, ANY DAY PRIOR TO FIRST DOSE",0,2001," ",BEFORE
NIDA-CTN-0002,MH,02_014076,SCREENING,8,4,RESPIRATORY,N,,"BASELINE, ANY DAY PRIOR TO FIRST DOSE",0,2001," ",DURING/AFTER
NIDA-CTN-0002,MH,02_014076,SCREENING,29,15,SEIZURE,N,,"BASELINE, ANY DAY PRIOR TO FIRST DOSE",0,2001," ",BEFORE
NIDA-CTN-0002,MH,02_014076,SCREENING,30,15,SEIZURE,N,,"BASELINE, ANY DAY PRIOR TO FIRST DOSE",0,2001," ",DURING/AFTER
NIDA-CTN-0002,MH,02_014076,SCREENING,13,7,SYMPTOMS OF TB,N,,"BASELINE, ANY DAY PRIOR TO FIRST DOSE",0,2001," ",BEFORE
NIDA-CTN-0002,MH,02_014076,SCREENING,14,7,SYMPTOMS OF TB,N,,"BASELINE, ANY DAY PRIOR TO FIRST DOSE",0,2001," ",DURING/AFTER
NIDA-CTN-0002,MH,02_014076,SCREENING,9,5,TB SKIN TEST POSITIVE,N,,"BASELINE, ANY DAY PRIOR TO FIRST DOSE",0,2001," ",BEFORE
NIDA-CTN-0002,MH,02_014076,SCREENING,10,5,TB SKIN TEST POSITIVE,N,,"BASELINE, ANY DAY PRIOR TO FIRST DOSE",0,2001," ",DURING/AFTER
NIDA-CTN-0002,MH,02_014076,SCREENING,11,6,X-RAY POSITIVE FOR TB,N,,"BASELINE, ANY DAY PRIOR TO FIRST DOSE",0,2001," ",BEFORE
NIDA-CTN-0002,MH,02_014076,SCREENING,12,6,X-RAY POSITIVE FOR TB,N,,"BASELINE, ANY DAY PRIOR TO FIRST DOSE",0,2001," ",DURING/AFTER
NIDA-CTN-0002,MH,02_015020,SCREENING,31,16,ALLERGIES,N,,"BASELINE, ANY DAY PRIOR TO FIRST DOSE",0,2001,1,BEFORE
NIDA-CTN-0002,MH,02_015020,SCREENING,32,16,ALLERGIES,N,,"BASELINE, ANY DAY PRIOR TO FIRST DOSE",0,2001,1,DURING/AFTER
NIDA-CTN-0002,MH,02_015020,SCREENING,5,3,CARDIOVASCULAR,N,,"BASELINE, ANY DAY PRIOR TO FIRST DOSE",0,2001,1,BEFORE
NIDA-CTN-0002,MH,02_015020,SCREENING,6,3,CARDIOVASCULAR,N,,"BASELINE, ANY DAY PRIOR TO FIRST DOSE",0,2001,1,DURING/AFTER
NIDA-CTN-0002,MH,02_015020,SCREENING,1,1,DERMATOLOGICAL,N,,"BASELINE, ANY DAY PRIOR TO FIRST DOSE",0,2001,1,BEFORE
NIDA-CTN-0002,MH,02_015020,SCREENING,2,1,DERMATOLOGICAL,N,,"BASELINE, ANY DAY PRIOR TO FIRST DOSE",0,2001,1,DURING/AFTER
NIDA-CTN-0002,MH,02_015020,SCREENING,23,12,ENDOCRINE,N,,"BASELINE, ANY DAY PRIOR TO FIRST DOSE",0,2001,1,BEFORE
NIDA-CTN-0002,MH,02_015020,SCREENING,24,12,ENDOCRINE,N,,"BASELINE, ANY DAY PRIOR TO FIRST DOSE",0,2001,1,DURING/AFTER
NIDA-CTN-0002,MH,02_015020,SCREENING,3,2,"EYES, EARS, NOSE, AND THROAT",N,,"BASELINE, ANY DAY PRIOR TO FIRST DOSE",0,2001,1,BEFORE
NIDA-CTN-0002,MH,02_015020,SCREENING,4,2,"EYES, EARS, NOSE, AND THROAT",N,,"BASELINE, ANY DAY PRIOR TO FIRST DOSE",0,2001,1,DURING/AFTER
NIDA-CTN-0002,MH,02_015020,SCREENING,17,9,GASTROINTESTINAL,N,,"BASELINE, ANY DAY PRIOR TO FIRST DOSE",0,2001,1,BEFORE
NIDA-CTN-0002,MH,02_015020,SCREENING,18,9,GASTROINTESTINAL,N,,"BASELINE, ANY DAY PRIOR TO FIRST DOSE",0,2001,1,DURING/AFTER
NIDA-CTN-0002,MH,02_015020,SCREENING,21,11,GENITOURINARY,N,,"BASELINE, ANY DAY PRIOR TO FIRST DOSE",0,2001,1,BEFORE
NIDA-CTN-0002,MH,02_015020,SCREENING,22,11,GENITOURINARY,N,,"BASELINE, ANY DAY PRIOR TO FIRST DOSE",0,2001,1,DURING/AFTER
NIDA-CTN-0002,MH,02_015020,SCREENING,19,10,HEPATIC,N,,"BASELINE, ANY DAY PRIOR TO FIRST DOSE",0,2001,1,BEFORE
NIDA-CTN-0002,MH,02_015020,SCREENING,20,10,HEPATIC,N,,"BASELINE, ANY DAY PRIOR TO FIRST DOSE",0,2001,1,DURING/AFTER
NIDA-CTN-0002,MH,02_015020,SCREENING,15,8,MUSCULOSKELETAL,N,,"BASELINE, ANY DAY PRIOR TO FIRST DOSE",0,2001,1,BEFORE
NIDA-CTN-0002,MH,02_015020,SCREENING,16,8,MUSCULOSKELETAL,N,,"BASELINE, ANY DAY PRIOR TO FIRST DOSE",0,2001,1,DURING/AFTER
NIDA-CTN-0002,MH,02_015020,SCREENING,27,14,NEUROLOGICAL,N,,"BASELINE, ANY DAY PRIOR TO FIRST DOSE",0,2001,1,BEFORE
NIDA-CTN-0002,MH,02_015020,SCREENING,28,14,NEUROLOGICAL,N,,"BASELINE, ANY DAY PRIOR TO FIRST DOSE",0,2001,1,DURING/AFTER
NIDA-CTN-0002,MH,02_015020,SCREENING,33,17,OTHER,,NOT DONE,"BASELINE, ANY DAY PRIOR TO FIRST DOSE",0,2001,1,
NIDA-CTN-0002,MH,02_015020,SCREENING,25,13,PSYCHIATRIC,N,,"BASELINE, ANY DAY PRIOR TO FIRST DOSE",0,2001,1,BEFORE
NIDA-CTN-0002,MH,02_015020,SCREENING,26,13,PSYCHIATRIC,N,,"BASELINE, ANY DAY PRIOR TO FIRST DOSE",0,2001,1,DURING/AFTER
NIDA-CTN-0002,MH,02_015020,SCREENING,7,4,RESPIRATORY,N,,"BASELINE, ANY DAY PRIOR TO FIRST DOSE",0,2001,1,BEFORE
NIDA-CTN-0002,MH,02_015020,SCREENING,8,4,RESPIRATORY,N,,"BASELINE, ANY DAY PRIOR TO FIRST DOSE",0,2001,1,DURING/AFTER
NIDA-CTN-0002,MH,02_015020,SCREENING,29,15,SEIZURE,N,,"BASELINE, ANY DAY PRIOR TO FIRST DOSE",0,2001,1,BEFORE
NIDA-CTN-0002,MH,02_015020,SCREENING,30,15,SEIZURE,N,,"BASELINE, ANY DAY PRIOR TO FIRST DOSE",0,2001,1,DURING/AFTER
NIDA-CTN-0002,MH,02_015020,SCREENING,13,7,SYMPTOMS OF TB,N,,"BASELINE, ANY DAY PRIOR TO FIRST DOSE",0,2001,1,BEFORE
NIDA-CTN-0002,MH,02_015020,SCREENING,14,7,SYMPTOMS OF TB,N,,"BASELINE, ANY DAY PRIOR TO FIRST DOSE",0,2001,1,DURING/AFTER
NIDA-CTN-0002,MH,02_015020,SCREENING,9,5,TB SKIN TEST POSITIVE,Y,,"BASELINE, ANY DAY PRIOR TO FIRST DOSE",0,2001,1,BEFORE
NIDA-CTN-0002,MH,02_015020,SCREENING,10,5,TB SKIN TEST POSITIVE,N,,"BASELINE, ANY DAY PRIOR TO FIRST DOSE",0,2001,1,DURING/AFTER
NIDA-CTN-0002,MH,02_015020,SCREENING,11,6,X-RAY POSITIVE FOR TB,N,,"BASELINE, ANY DAY PRIOR TO FIRST DOSE",0,2001,1,BEFORE
NIDA-CTN-0002,MH,02_015020,SCREENING,12,6,X-RAY POSITIVE FOR TB,N,,"BASELINE, ANY DAY PRIOR TO FIRST DOSE",0,2001,1,DURING/AFTER
NIDA-CTN-0002,MH,02_015027,SCREENING,29,16,ALLERGIES,N,,"BASELINE, ANY DAY PRIOR TO FIRST DOSE",0,2001,-1,BEFORE
NIDA-CTN-0002,MH,02_015027,SCREENING,30,16,ALLERGIES,N,,"BASELINE, ANY DAY PRIOR TO FIRST DOSE",0,2001,-1,DURING/AFTER
NIDA-CTN-0002,MH,02_015027,SCREENING,5,3,CARDIOVASCULAR,N,,"BASELINE, ANY DAY PRIOR TO FIRST DOSE",0,2001,-1,BEFORE
NIDA-CTN-0002,MH,02_015027,SCREENING,6,3,CARDIOVASCULAR,N,,"BASELINE, ANY DAY PRIOR TO FIRST DOSE",0,2001,-1,DURING/AFTER
NIDA-CTN-0002,MH,02_015027,SCREENING,1,1,DERMATOLOGICAL,N,,"BASELINE, ANY DAY PRIOR TO FIRST DOSE",0,2001,-1,BEFORE
NIDA-CTN-0002,MH,02_015027,SCREENING,2,1,DERMATOLOGICAL,N,,"BASELINE, ANY DAY PRIOR TO FIRST DOSE",0,2001,-1,DURING/AFTER
NIDA-CTN-0002,MH,02_015027,SCREENING,21,12,ENDOCRINE,N,,"BASELINE, ANY DAY PRIOR TO FIRST DOSE",0,2001,-1,BEFORE
NIDA-CTN-0002,MH,02_015027,SCREENING,22,12,ENDOCRINE,N,,"BASELINE, ANY DAY PRIOR TO FIRST DOSE",0,2001,-1,DURING/AFTER
NIDA-CTN-0002,MH,02_015027,SCREENING,3,2,"EYES, EARS, NOSE, AND THROAT",N,,"BASELINE, ANY DAY PRIOR TO FIRST DOSE",0,2001,-1,BEFORE
NIDA-CTN-0002,MH,02_015027,SCREENING,4,2,"EYES, EARS, NOSE, AND THROAT",N,,"BASELINE, ANY DAY PRIOR TO FIRST DOSE",0,2001,-1,DURING/AFTER
NIDA-CTN-0002,MH,02_015027,SCREENING,15,9,GASTROINTESTINAL,N,,"BASELINE, ANY DAY PRIOR TO FIRST DOSE",0,2001,-1,BEFORE
NIDA-CTN-0002,MH,02_015027,SCREENING,16,9,GASTROINTESTINAL,N,,"BASELINE, ANY DAY PRIOR TO FIRST DOSE",0,2001,-1,DURING/AFTER
NIDA-CTN-0002,MH,02_015027,SCREENING,19,11,GENITOURINARY,N,,"BASELINE, ANY DAY PRIOR TO FIRST DOSE",0,2001,-1,BEFORE
NIDA-CTN-0002,MH,02_015027,SCREENING,20,11,GENITOURINARY,N,,"BASELINE, ANY DAY PRIOR TO FIRST DOSE",0,2001,-1,DURING/AFTER
NIDA-CTN-0002,MH,02_015027,SCREENING,17,10,HEPATIC,N,,"BASELINE, ANY DAY PRIOR TO FIRST DOSE",0,2001,-1,BEFORE
NIDA-CTN-0002,MH,02_015027,SCREENING,18,10,HEPATIC,N,,"BASELINE, ANY DAY PRIOR TO FIRST DOSE",0,2001,-1,DURING/AFTER
NIDA-CTN-0002,MH,02_015027,SCREENING,13,8,MUSCULOSKELETAL,N,,"BASELINE, ANY DAY PRIOR TO FIRST DOSE",0,2001,-1,BEFORE
NIDA-CTN-0002,MH,02_015027,SCREENING,14,8,MUSCULOSKELETAL,N,,"BASELINE, ANY DAY PRIOR TO FIRST DOSE",0,2001,-1,DURING/AFTER
NIDA-CTN-0002,MH,02_015027,SCREENING,25,14,NEUROLOGICAL,N,,"BASELINE, ANY DAY PRIOR TO FIRST DOSE",0,2001,-1,BEFORE
NIDA-CTN-0002,MH,02_015027,SCREENING,26,14,NEUROLOGICAL,N,,"BASELINE, ANY DAY PRIOR TO FIRST DOSE",0,2001,-1,DURING/AFTER
NIDA-CTN-0002,MH,02_015027,SCREENING,31,17,OTHER,,NOT DONE,"BASELINE, ANY DAY PRIOR TO FIRST DOSE",0,2001,-1,
NIDA-CTN-0002,MH,02_015027,SCREENING,23,13,PSYCHIATRIC,N,,"BASELINE, ANY DAY PRIOR TO FIRST DOSE",0,2001,-1,BEFORE
NIDA-CTN-0002,MH,02_015027,SCREENING,24,13,PSYCHIATRIC,N,,"BASELINE, ANY DAY PRIOR TO FIRST DOSE",0,2001,-1,DURING/AFTER
NIDA-CTN-0002,MH,02_015027,SCREENING,7,4,RESPIRATORY,N,,"BASELINE, ANY DAY PRIOR TO FIRST DOSE",0,2001,-1,BEFORE
NIDA-CTN-0002,MH,02_015027,SCREENING,8,4,RESPIRATORY,N,,"BASELINE, ANY DAY PRIOR TO FIRST DOSE",0,2001,-1,DURING/AFTER
NIDA-CTN-0002,MH,02_015027,SCREENING,27,15,SEIZURE,N,,"BASELINE, ANY DAY PRIOR TO FIRST DOSE",0,2001,-1,BEFORE
NIDA-CTN-0002,MH,02_015027,SCREENING,28,15,SEIZURE,N,,"BASELINE, ANY DAY PRIOR TO FIRST DOSE",0,2001,-1,DURING/AFTER
NIDA-CTN-0002,MH,02_015027,SCREENING,11,7,SYMPTOMS OF TB,N,,"BASELINE, ANY DAY PRIOR TO FIRST DOSE",0,2001,-1,BEFORE
NIDA-CTN-0002,MH,02_015027,SCREENING,12,7,SYMPTOMS OF TB,N,,"BASELINE, ANY DAY PRIOR TO FIRST DOSE",0,2001,-1,DURING/AFTER
NIDA-CTN-0002,MH,02_015027,SCREENING,9,5,TB SKIN TEST POSITIVE,,NOT DONE,"BASELINE, ANY DAY PRIOR TO FIRST DOSE",0,2001,-1,
NIDA-CTN-0002,MH,02_015027,SCREENING,10,6,X-RAY POSITIVE FOR TB,,NOT DONE,"BASELINE, ANY DAY PRIOR TO FIRST DOSE",0,2001,-1,
NIDA-CTN-0002,MH,02_018478,SCREENING,31,16,ALLERGIES,N,,"BASELINE, ANY DAY PRIOR TO FIRST DOSE",0,2001,1,BEFORE
NIDA-CTN-0002,MH,02_018478,SCREENING,32,16,ALLERGIES,N,,"BASELINE, ANY DAY PRIOR TO FIRST DOSE",0,2001,1,DURING/AFTER
NIDA-CTN-0002,MH,02_018478,SCREENING,5,3,CARDIOVASCULAR,N,,"BASELINE, ANY DAY PRIOR TO FIRST DOSE",0,2001,1,BEFORE
NIDA-CTN-0002,MH,02_018478,SCREENING,6,3,CARDIOVASCULAR,N,,"BASELINE, ANY DAY PRIOR TO FIRST DOSE",0,2001,1,DURING/AFTER
NIDA-CTN-0002,MH,02_018478,SCREENING,1,1,DERMATOLOGICAL,N,,"BASELINE, ANY DAY PRIOR TO FIRST DOSE",0,2001,1,BEFORE
NIDA-CTN-0002,MH,02_018478,SCREENING,2,1,DERMATOLOGICAL,N,,"BASELINE, ANY DAY PRIOR TO FIRST DOSE",0,2001,1,DURING/AFTER
NIDA-CTN-0002,MH,02_018478,SCREENING,23,12,ENDOCRINE,N,,"BASELINE, ANY DAY PRIOR TO FIRST DOSE",0,2001,1,BEFORE
NIDA-CTN-0002,MH,02_018478,SCREENING,24,12,ENDOCRINE,N,,"BASELINE, ANY DAY PRIOR TO FIRST DOSE",0,2001,1,DURING/AFTER
NIDA-CTN-0002,MH,02_018478,SCREENING,3,2,"EYES, EARS, NOSE, AND THROAT",N,,"BASELINE, ANY DAY PRIOR TO FIRST DOSE",0,2001,1,BEFORE
NIDA-CTN-0002,MH,02_018478,SCREENING,4,2,"EYES, EARS, NOSE, AND THROAT",N,,"BASELINE, ANY DAY PRIOR TO FIRST DOSE",0,2001,1,DURING/AFTER
NIDA-CTN-0002,MH,02_018478,SCREENING,17,9,GASTROINTESTINAL,N,,"BASELINE, ANY DAY PRIOR TO FIRST DOSE",0,2001,1,BEFORE
NIDA-CTN-0002,MH,02_018478,SCREENING,18,9,GASTROINTESTINAL,N,,"BASELINE, ANY DAY PRIOR TO FIRST DOSE",0,2001,1,DURING/AFTER
NIDA-CTN-0002,MH,02_018478,SCREENING,21,11,GENITOURINARY,Y,,"BASELINE, ANY DAY PRIOR TO FIRST DOSE",0,2001,1,BEFORE
NIDA-CTN-0002,MH,02_018478,SCREENING,22,11,GENITOURINARY,N,,"BASELINE, ANY DAY PRIOR TO FIRST DOSE",0,2001,1,DURING/AFTER
NIDA-CTN-0002,MH,02_018478,SCREENING,19,10,HEPATIC,N,,"BASELINE, ANY DAY PRIOR TO FIRST DOSE",0,2001,1,BEFORE
NIDA-CTN-0002,MH,02_018478,SCREENING,20,10,HEPATIC,N,,"BASELINE, ANY DAY PRIOR TO FIRST DOSE",0,2001,1,DURING/AFTER
NIDA-CTN-0002,MH,02_018478,SCREENING,15,8,MUSCULOSKELETAL,N,,"BASELINE, ANY DAY PRIOR TO FIRST DOSE",0,2001,1,BEFORE
NIDA-CTN-0002,MH,02_018478,SCREENING,16,8,MUSCULOSKELETAL,N,,"BASELINE, ANY DAY PRIOR TO FIRST DOSE",0,2001,1,DURING/AFTER
NIDA-CTN-0002,MH,02_018478,SCREENING,27,14,NEUROLOGICAL,N,,"BASELINE, ANY DAY PRIOR TO FIRST DOSE",0,2001,1,BEFORE
NIDA-CTN-0002,MH,02_018478,SCREENING,28,14,NEUROLOGICAL,N,,"BASELINE, ANY DAY PRIOR TO FIRST DOSE",0,2001,1,DURING/AFTER
NIDA-CTN-0002,MH,02_018478,SCREENING,33,17,OTHER,N,,"BASELINE, ANY DAY PRIOR TO FIRST DOSE",0,2001,1,BEFORE
NIDA-CTN-0002,MH,02_018478,SCREENING,34,17,OTHER,N,,"BASELINE, ANY DAY PRIOR TO FIRST DOSE",0,2001,1,DURING/AFTER
NIDA-CTN-0002,MH,02_018478,SCREENING,25,13,PSYCHIATRIC,N,,"BASELINE, ANY DAY PRIOR TO FIRST DOSE",0,2001,1,BEFORE
NIDA-CTN-0002,MH,02_018478,SCREENING,26,13,PSYCHIATRIC,N,,"BASELINE, ANY DAY PRIOR TO FIRST DOSE",0,2001,1,DURING/AFTER
NIDA-CTN-0002,MH,02_018478,SCREENING,7,4,RESPIRATORY,N,,"BASELINE, ANY DAY PRIOR TO FIRST DOSE",0,2001,1,BEFORE
NIDA-CTN-0002,MH,02_018478,SCREENING,8,4,RESPIRATORY,N,,"BASELINE, ANY DAY PRIOR TO FIRST DOSE",0,2001,1,DURING/AFTER
NIDA-CTN-0002,MH,02_018478,SCREENING,29,15,SEIZURE,N,,"BASELINE, ANY DAY PRIOR TO FIRST DOSE",0,2001,1,BEFORE
NIDA-CTN-0002,MH,02_018478,SCREENING,30,15,SEIZURE,N,,"BASELINE, ANY DAY PRIOR TO FIRST DOSE",0,2001,1,DURING/AFTER
NIDA-CTN-0002,MH,02_018478,SCREENING,13,7,SYMPTOMS OF TB,N,,"BASELINE, ANY DAY PRIOR TO FIRST DOSE",0,2001,1,BEFORE
NIDA-CTN-0002,MH,02_018478,SCREENING,14,7,SYMPTOMS OF TB,N,,"BASELINE, ANY DAY PRIOR TO FIRST DOSE",0,2001,1,DURING/AFTER
NIDA-CTN-0002,MH,02_018478,SCREENING,9,5,TB SKIN TEST POSITIVE,N,,"BASELINE, ANY DAY PRIOR TO FIRST DOSE",0,2001,1,BEFORE
NIDA-CTN-0002,MH,02_018478,SCREENING,10,5,TB SKIN TEST POSITIVE,N,,"BASELINE, ANY DAY PRIOR TO FIRST DOSE",0,2001,1,DURING/AFTER
NIDA-CTN-0002,MH,02_018478,SCREENING,11,6,X-RAY POSITIVE FOR TB,N,,"BASELINE, ANY DAY PRIOR TO FIRST DOSE",0,2001,1,BEFORE
NIDA-CTN-0002,MH,02_018478,SCREENING,12,6,X-RAY POSITIVE FOR TB,N,,"BASELINE, ANY DAY PRIOR TO FIRST DOSE",0,2001,1,DURING/AFTER
NIDA-CTN-0002,MH,02_018880,SCREENING,29,16,ALLERGIES,N,,"BASELINE, ANY DAY PRIOR TO FIRST DOSE",0,2001,1,BEFORE
NIDA-CTN-0002,MH,02_018880,SCREENING,30,16,ALLERGIES,N,,"BASELINE, ANY DAY PRIOR TO FIRST DOSE",0,2001,1,DURING/AFTER
NIDA-CTN-0002,MH,02_018880,SCREENING,5,3,CARDIOVASCULAR,N,,"BASELINE, ANY DAY PRIOR TO FIRST DOSE",0,2001,1,BEFORE
NIDA-CTN-0002,MH,02_018880,SCREENING,6,3,CARDIOVASCULAR,N,,"BASELINE, ANY DAY PRIOR TO FIRST DOSE",0,2001,1,DURING/AFTER
NIDA-CTN-0002,MH,02_018880,SCREENING,1,1,DERMATOLOGICAL,N,,"BASELINE, ANY DAY PRIOR TO FIRST DOSE",0,2001,1,BEFORE
NIDA-CTN-0002,MH,02_018880,SCREENING,2,1,DERMATOLOGICAL,N,,"BASELINE, ANY DAY PRIOR TO FIRST DOSE",0,2001,1,DURING/AFTER
NIDA-CTN-0002,MH,02_018880,SCREENING,21,12,ENDOCRINE,N,,"BASELINE, ANY DAY PRIOR TO FIRST DOSE",0,2001,1,BEFORE
NIDA-CTN-0002,MH,02_018880,SCREENING,22,12,ENDOCRINE,N,,"BASELINE, ANY DAY PRIOR TO FIRST DOSE",0,2001,1,DURING/AFTER
NIDA-CTN-0002,MH,02_018880,SCREENING,3,2,"EYES, EARS, NOSE, AND THROAT",N,,"BASELINE, ANY DAY PRIOR TO FIRST DOSE",0,2001,1,BEFORE
NIDA-CTN-0002,MH,02_018880,SCREENING,4,2,"EYES, EARS, NOSE, AND THROAT",N,,"BASELINE, ANY DAY PRIOR TO FIRST DOSE",0,2001,1,DURING/AFTER
NIDA-CTN-0002,MH,02_018880,SCREENING,15,9,GASTROINTESTINAL,N,,"BASELINE, ANY DAY PRIOR TO FIRST DOSE",0,2001,1,BEFORE
NIDA-CTN-0002,MH,02_018880,SCREENING,16,9,GASTROINTESTINAL,N,,"BASELINE, ANY DAY PRIOR TO FIRST DOSE",0,2001,1,DURING/AFTER
NIDA-CTN-0002,MH,02_018880,SCREENING,19,11,GENITOURINARY,N,,"BASELINE, ANY DAY PRIOR TO FIRST DOSE",0,2001,1,BEFORE
NIDA-CTN-0002,MH,02_018880,SCREENING,20,11,GENITOURINARY,N,,"BASELINE, ANY DAY PRIOR TO FIRST DOSE",0,2001,1,DURING/AFTER
NIDA-CTN-0002,MH,02_018880,SCREENING,17,10,HEPATIC,N,,"BASELINE, ANY DAY PRIOR TO FIRST DOSE",0,2001,1,BEFORE
NIDA-CTN-0002,MH,02_018880,SCREENING,18,10,HEPATIC,N,,"BASELINE, ANY DAY PRIOR TO FIRST DOSE",0,2001,1,DURING/AFTER
NIDA-CTN-0002,MH,02_018880,SCREENING,13,8,MUSCULOSKELETAL,Y,,"BASELINE, ANY DAY PRIOR TO FIRST DOSE",0,2001,1,BEFORE
NIDA-CTN-0002,MH,02_018880,SCREENING,14,8,MUSCULOSKELETAL,N,,"BASELINE, ANY DAY PRIOR TO FIRST DOSE",0,2001,1,DURING/AFTER
NIDA-CTN-0002,MH,02_018880,SCREENING,25,14,NEUROLOGICAL,N,,"BASELINE, ANY DAY PRIOR TO FIRST DOSE",0,2001,1,BEFORE
NIDA-CTN-0002,MH,02_018880,SCREENING,26,14,NEUROLOGICAL,N,,"BASELINE, ANY DAY PRIOR TO FIRST DOSE",0,2001,1,DURING/AFTER
NIDA-CTN-0002,MH,02_018880,SCREENING,31,17,OTHER,,NOT DONE,"BASELINE, ANY DAY PRIOR TO FIRST DOSE",0,2001,1,
NIDA-CTN-0002,MH,02_018880,SCREENING,23,13,PSYCHIATRIC,N,,"BASELINE, ANY DAY PRIOR TO FIRST DOSE",0,2001,1,BEFORE
NIDA-CTN-0002,MH,02_018880,SCREENING,24,13,PSYCHIATRIC,N,,"BASELINE, ANY DAY PRIOR TO FIRST DOSE",0,2001,1,DURING/AFTER
NIDA-CTN-0002,MH,02_018880,SCREENING,7,4,RESPIRATORY,N,,"BASELINE, ANY DAY PRIOR TO FIRST DOSE",0,2001,1,BEFORE
NIDA-CTN-0002,MH,02_018880,SCREENING,8,4,RESPIRATORY,N,,"BASELINE, ANY DAY PRIOR TO FIRST DOSE",0,2001,1,DURING/AFTER
NIDA-CTN-0002,MH,02_018880,SCREENING,27,15,SEIZURE,N,,"BASELINE, ANY DAY PRIOR TO FIRST DOSE",0,2001,1,BEFORE
NIDA-CTN-0002,MH,02_018880,SCREENING,28,15,SEIZURE,N,,"BASELINE, ANY DAY PRIOR TO FIRST DOSE",0,2001,1,DURING/AFTER
NIDA-CTN-0002,MH,02_018880,SCREENING,11,7,SYMPTOMS OF TB,N,,"BASELINE, ANY DAY PRIOR TO FIRST DOSE",0,2001,1,BEFORE
NIDA-CTN-0002,MH,02_018880,SCREENING,12,7,SYMPTOMS OF TB,N,,"BASELINE, ANY DAY PRIOR TO FIRST DOSE",0,2001,1,DURING/AFTER
NIDA-CTN-0002,MH,02_018880,SCREENING,9,5,TB SKIN TEST POSITIVE,,NOT DONE,"BASELINE, ANY DAY PRIOR TO FIRST DOSE",0,2001,1,
NIDA-CTN-0002,MH,02_018880,SCREENING,10,6,X-RAY POSITIVE FOR TB,,NOT DONE,"BASELINE, ANY DAY PRIOR TO FIRST DOSE",0,2001,1,
NIDA-CTN-0002,MH,02_019356,SCREENING,29,16,ALLERGIES,N,,"BASELINE, ANY DAY PRIOR TO FIRST DOSE",0,2001,-1,BEFORE
NIDA-CTN-0002,MH,02_019356,SCREENING,30,16,ALLERGIES,N,,"BASELINE, ANY DAY PRIOR TO FIRST DOSE",0,2001,-1,DURING/AFTER
NIDA-CTN-0002,MH,02_019356,SCREENING,5,3,CARDIOVASCULAR,N,,"BASELINE, ANY DAY PRIOR TO FIRST DOSE",0,2001,-1,BEFORE
NIDA-CTN-0002,MH,02_019356,SCREENING,6,3,CARDIOVASCULAR,N,,"BASELINE, ANY DAY PRIOR TO FIRST DOSE",0,2001,-1,DURING/AFTER
NIDA-CTN-0002,MH,02_019356,SCREENING,1,1,DERMATOLOGICAL,N,,"BASELINE, ANY DAY PRIOR TO FIRST DOSE",0,2001,-1,BEFORE
NIDA-CTN-0002,MH,02_019356,SCREENING,2,1,DERMATOLOGICAL,N,,"BASELINE, ANY DAY PRIOR TO FIRST DOSE",0,2001,-1,DURING/AFTER
NIDA-CTN-0002,MH,02_019356,SCREENING,21,12,ENDOCRINE,N,,"BASELINE, ANY DAY PRIOR TO FIRST DOSE",0,2001,-1,BEFORE
NIDA-CTN-0002,MH,02_019356,SCREENING,22,12,ENDOCRINE,N,,"BASELINE, ANY DAY PRIOR TO FIRST DOSE",0,2001,-1,DURING/AFTER
NIDA-CTN-0002,MH,02_019356,SCREENING,3,2,"EYES, EARS, NOSE, AND THROAT",N,,"BASELINE, ANY DAY PRIOR TO FIRST DOSE",0,2001,-1,BEFORE
NIDA-CTN-0002,MH,02_019356,SCREENING,4,2,"EYES, EARS, NOSE, AND THROAT",N,,"BASELINE, ANY DAY PRIOR TO FIRST DOSE",0,2001,-1,DURING/AFTER
NIDA-CTN-0002,MH,02_019356,SCREENING,15,9,GASTROINTESTINAL,Y,,"BASELINE, ANY DAY PRIOR TO FIRST DOSE",0,2001,-1,BEFORE
NIDA-CTN-0002,MH,02_019356,SCREENING,16,9,GASTROINTESTINAL,N,,"BASELINE, ANY DAY PRIOR TO FIRST DOSE",0,2001,-1,DURING/AFTER
NIDA-CTN-0002,MH,02_019356,SCREENING,19,11,GENITOURINARY,Y,,"BASELINE, ANY DAY PRIOR TO FIRST DOSE",0,2001,-1,BEFORE
NIDA-CTN-0002,MH,02_019356,SCREENING,20,11,GENITOURINARY,N,,"BASELINE, ANY DAY PRIOR TO FIRST DOSE",0,2001,-1,DURING/AFTER
NIDA-CTN-0002,MH,02_019356,SCREENING,17,10,HEPATIC,N,,"BASELINE, ANY DAY PRIOR TO FIRST DOSE",0,2001,-1,BEFORE
NIDA-CTN-0002,MH,02_019356,SCREENING,18,10,HEPATIC,N,,"BASELINE, ANY DAY PRIOR TO FIRST DOSE",0,2001,-1,DURING/AFTER
NIDA-CTN-0002,MH,02_019356,SCREENING,13,8,MUSCULOSKELETAL,N,,"BASELINE, ANY DAY PRIOR TO FIRST DOSE",0,2001,-1,BEFORE
NIDA-CTN-0002,MH,02_019356,SCREENING,14,8,MUSCULOSKELETAL,N,,"BASELINE, ANY DAY PRIOR TO FIRST DOSE",0,2001,-1,DURING/AFTER
NIDA-CTN-0002,MH,02_019356,SCREENING,25,14,NEUROLOGICAL,N,,"BASELINE, ANY DAY PRIOR TO FIRST DOSE",0,2001,-1,BEFORE
NIDA-CTN-0002,MH,02_019356,SCREENING,26,14,NEUROLOGICAL,N,,"BASELINE, ANY DAY PRIOR TO FIRST DOSE",0,2001,-1,DURING/AFTER
NIDA-CTN-0002,MH,02_019356,SCREENING,31,17,OTHER,N,,"BASELINE, ANY DAY PRIOR TO FIRST DOSE",0,2001,-1,BEFORE
NIDA-CTN-0002,MH,02_019356,SCREENING,32,17,OTHER,N,,"BASELINE, ANY DAY PRIOR TO FIRST DOSE",0,2001,-1,DURING/AFTER
NIDA-CTN-0002,MH,02_019356,SCREENING,23,13,PSYCHIATRIC,N,,"BASELINE, ANY DAY PRIOR TO FIRST DOSE",0,2001,-1,BEFORE
NIDA-CTN-0002,MH,02_019356,SCREENING,24,13,PSYCHIATRIC,N,,"BASELINE, ANY DAY PRIOR TO FIRST DOSE",0,2001,-1,DURING/AFTER
NIDA-CTN-0002,MH,02_019356,SCREENING,7,4,RESPIRATORY,N,,"BASELINE, ANY DAY PRIOR TO FIRST DOSE",0,2001,-1,BEFORE
NIDA-CTN-0002,MH,02_019356,SCREENING,8,4,RESPIRATORY,N,,"BASELINE, ANY DAY PRIOR TO FIRST DOSE",0,2001,-1,DURING/AFTER
NIDA-CTN-0002,MH,02_019356,SCREENING,27,15,SEIZURE,N,,"BASELINE, ANY DAY PRIOR TO FIRST DOSE",0,2001,-1,BEFORE
NIDA-CTN-0002,MH,02_019356,SCREENING,28,15,SEIZURE,N,,"BASELINE, ANY DAY PRIOR TO FIRST DOSE",0,2001,-1,DURING/AFTER
NIDA-CTN-0002,MH,02_019356,SCREENING,11,7,SYMPTOMS OF TB,N,,"BASELINE, ANY DAY PRIOR TO FIRST DOSE",0,2001,-1,BEFORE
NIDA-CTN-0002,MH,02_019356,SCREENING,12,7,SYMPTOMS OF TB,N,,"BASELINE, ANY DAY PRIOR TO FIRST DOSE",0,2001,-1,DURING/AFTER
NIDA-CTN-0002,MH,02_019356,SCREENING,9,5,TB SKIN TEST POSITIVE,,NOT DONE,"BASELINE, ANY DAY PRIOR TO FIRST DOSE",0,2001,-1,
NIDA-CTN-0002,MH,02_019356,SCREENING,10,6,X-RAY POSITIVE FOR TB,,NOT DONE,"BASELINE, ANY DAY PRIOR TO FIRST DOSE",0,2001,-1,
NIDA-CTN-0002,MH,02_019588,SCREENING,31,16,ALLERGIES,N,,"BASELINE, ANY DAY PRIOR TO FIRST DOSE",0,2001,1,BEFORE
NIDA-CTN-0002,MH,02_019588,SCREENING,32,16,ALLERGIES,N,,"BASELINE, ANY DAY PRIOR TO FIRST DOSE",0,2001,1,DURING/AFTER
NIDA-CTN-0002,MH,02_019588,SCREENING,5,3,CARDIOVASCULAR,N,,"BASELINE, ANY DAY PRIOR TO FIRST DOSE",0,2001,1,BEFORE
NIDA-CTN-0002,MH,02_019588,SCREENING,6,3,CARDIOVASCULAR,Y,,"BASELINE, ANY DAY PRIOR TO FIRST DOSE",0,2001,1,DURING/AFTER
NIDA-CTN-0002,MH,02_019588,SCREENING,1,1,DERMATOLOGICAL,N,,"BASELINE, ANY DAY PRIOR TO FIRST DOSE",0,2001,1,BEFORE
NIDA-CTN-0002,MH,02_019588,SCREENING,2,1,DERMATOLOGICAL,N,,"BASELINE, ANY DAY PRIOR TO FIRST DOSE",0,2001,1,DURING/AFTER
NIDA-CTN-0002,MH,02_019588,SCREENING,23,12,ENDOCRINE,N,,"BASELINE, ANY DAY PRIOR TO FIRST DOSE",0,2001,1,BEFORE
NIDA-CTN-0002,MH,02_019588,SCREENING,24,12,ENDOCRINE,N,,"BASELINE, ANY DAY PRIOR TO FIRST DOSE",0,2001,1,DURING/AFTER
NIDA-CTN-0002,MH,02_019588,SCREENING,3,2,"EYES, EARS, NOSE, AND THROAT",N,,"BASELINE, ANY DAY PRIOR TO FIRST DOSE",0,2001,1,BEFORE
NIDA-CTN-0002,MH,02_019588,SCREENING,4,2,"EYES, EARS, NOSE, AND THROAT",N,,"BASELINE, ANY DAY PRIOR TO FIRST DOSE",0,2001,1,DURING/AFTER
NIDA-CTN-0002,MH,02_019588,SCREENING,17,9,GASTROINTESTINAL,Y,,"BASELINE, ANY DAY PRIOR TO FIRST DOSE",0,2001,1,BEFORE
NIDA-CTN-0002,MH,02_019588,SCREENING,18,9,GASTROINTESTINAL,Y,,"BASELINE, ANY DAY PRIOR TO FIRST DOSE",0,2001,1,DURING/AFTER
NIDA-CTN-0002,MH,02_019588,SCREENING,21,11,GENITOURINARY,N,,"BASELINE, ANY DAY PRIOR TO FIRST DOSE",0,2001,1,BEFORE
NIDA-CTN-0002,MH,02_019588,SCREENING,22,11,GENITOURINARY,N,,"BASELINE, ANY DAY PRIOR TO FIRST DOSE",0,2001,1,DURING/AFTER
NIDA-CTN-0002,MH,02_019588,SCREENING,19,10,HEPATIC,N,,"BASELINE, ANY DAY PRIOR TO FIRST DOSE",0,2001,1,BEFORE
NIDA-CTN-0002,MH,02_019588,SCREENING,20,10,HEPATIC,N,,"BASELINE, ANY DAY PRIOR TO FIRST DOSE",0,2001,1,DURING/AFTER
NIDA-CTN-0002,MH,02_019588,SCREENING,15,8,MUSCULOSKELETAL,Y,,"BASELINE, ANY DAY PRIOR TO FIRST DOSE",0,2001,1,BEFORE
NIDA-CTN-0002,MH,02_019588,SCREENING,16,8,MUSCULOSKELETAL,Y,,"BASELINE, ANY DAY PRIOR TO FIRST DOSE",0,2001,1,DURING/AFTER
NIDA-CTN-0002,MH,02_019588,SCREENING,27,14,NEUROLOGICAL,N,,"BASELINE, ANY DAY PRIOR TO FIRST DOSE",0,2001,1,BEFORE
NIDA-CTN-0002,MH,02_019588,SCREENING,28,14,NEUROLOGICAL,N,,"BASELINE, ANY DAY PRIOR TO FIRST DOSE",0,2001,1,DURING/AFTER
NIDA-CTN-0002,MH,02_019588,SCREENING,33,17,OTHER,N,,"BASELINE, ANY DAY PRIOR TO FIRST DOSE",0,2001,1,BEFORE
NIDA-CTN-0002,MH,02_019588,SCREENING,34,17,OTHER,N,,"BASELINE, ANY DAY PRIOR TO FIRST DOSE",0,2001,1,DURING/AFTER
NIDA-CTN-0002,MH,02_019588,SCREENING,25,13,PSYCHIATRIC,N,,"BASELINE, ANY DAY PRIOR TO FIRST DOSE",0,2001,1,BEFORE
NIDA-CTN-0002,MH,02_019588,SCREENING,26,13,PSYCHIATRIC,N,,"BASELINE, ANY DAY PRIOR TO FIRST DOSE",0,2001,1,DURING/AFTER
NIDA-CTN-0002,MH,02_019588,SCREENING,7,4,RESPIRATORY,N,,"BASELINE, ANY DAY PRIOR TO FIRST DOSE",0,2001,1,BEFORE
NIDA-CTN-0002,MH,02_019588,SCREENING,8,4,RESPIRATORY,N,,"BASELINE, ANY DAY PRIOR TO FIRST DOSE",0,2001,1,DURING/AFTER
NIDA-CTN-0002,MH,02_019588,SCREENING,29,15,SEIZURE,N,,"BASELINE, ANY DAY PRIOR TO FIRST DOSE",0,2001,1,BEFORE
NIDA-CTN-0002,MH,02_019588,SCREENING,30,15,SEIZURE,N,,"BASELINE, ANY DAY PRIOR TO FIRST DOSE",0,2001,1,DURING/AFTER
NIDA-CTN-0002,MH,02_019588,SCREENING,13,7,SYMPTOMS OF TB,N,,"BASELINE, ANY DAY PRIOR TO FIRST DOSE",0,2001,1,BEFORE
NIDA-CTN-0002,MH,02_019588,SCREENING,14,7,SYMPTOMS OF TB,N,,"BASELINE, ANY DAY PRIOR TO FIRST DOSE",0,2001,1,DURING/AFTER
NIDA-CTN-0002,MH,02_019588,SCREENING,9,5,TB SKIN TEST POSITIVE,N,,"BASELINE, ANY DAY PRIOR TO FIRST DOSE",0,2001,1,BEFORE
NIDA-CTN-0002,MH,02_019588,SCREENING,10,5,TB SKIN TEST POSITIVE,N,,"BASELINE, ANY DAY PRIOR TO FIRST DOSE",0,2001,1,DURING/AFTER
NIDA-CTN-0002,MH,02_019588,SCREENING,11,6,X-RAY POSITIVE FOR TB,N,,"BASELINE, ANY DAY PRIOR TO FIRST DOSE",0,2001,1,BEFORE
NIDA-CTN-0002,MH,02_019588,SCREENING,12,6,X-RAY POSITIVE FOR TB,N,,"BASELINE, ANY DAY PRIOR TO FIRST DOSE",0,2001,1,DURING/AFTER
NIDA-CTN-0002,MH,02_019718,SCREENING,31,16,ALLERGIES,N,,"BASELINE, ANY DAY PRIOR TO FIRST DOSE",0,2002,1,BEFORE
NIDA-CTN-0002,MH,02_019718,SCREENING,32,16,ALLERGIES,N,,"BASELINE, ANY DAY PRIOR TO FIRST DOSE",0,2002,1,DURING/AFTER
NIDA-CTN-0002,MH,02_019718,SCREENING,5,3,CARDIOVASCULAR,Y,,"BASELINE, ANY DAY PRIOR TO FIRST DOSE",0,2002,1,BEFORE
NIDA-CTN-0002,MH,02_019718,SCREENING,6,3,CARDIOVASCULAR,N,,"BASELINE, ANY DAY PRIOR TO FIRST DOSE",0,2002,1,DURING/AFTER
NIDA-CTN-0002,MH,02_019718,SCREENING,1,1,DERMATOLOGICAL,Y,,"BASELINE, ANY DAY PRIOR TO FIRST DOSE",0,2002,1,BEFORE
NIDA-CTN-0002,MH,02_019718,SCREENING,2,1,DERMATOLOGICAL,N,,"BASELINE, ANY DAY PRIOR TO FIRST DOSE",0,2002,1,DURING/AFTER
NIDA-CTN-0002,MH,02_019718,SCREENING,23,12,ENDOCRINE,Y,,"BASELINE, ANY DAY PRIOR TO FIRST DOSE",0,2002,1,BEFORE
NIDA-CTN-0002,MH,02_019718,SCREENING,24,12,ENDOCRINE,Y,,"BASELINE, ANY DAY PRIOR TO FIRST DOSE",0,2002,1,DURING/AFTER
NIDA-CTN-0002,MH,02_019718,SCREENING,3,2,"EYES, EARS, NOSE, AND THROAT",N,,"BASELINE, ANY DAY PRIOR TO FIRST DOSE",0,2002,1,BEFORE
NIDA-CTN-0002,MH,02_019718,SCREENING,4,2,"EYES, EARS, NOSE, AND THROAT",N,,"BASELINE, ANY DAY PRIOR TO FIRST DOSE",0,2002,1,DURING/AFTER
NIDA-CTN-0002,MH,02_019718,SCREENING,17,9,GASTROINTESTINAL,Y,,"BASELINE, ANY DAY PRIOR TO FIRST DOSE",0,2002,1,BEFORE
NIDA-CTN-0002,MH,02_019718,SCREENING,18,9,GASTROINTESTINAL,Y,,"BASELINE, ANY DAY PRIOR TO FIRST DOSE",0,2002,1,DURING/AFTER
NIDA-CTN-0002,MH,02_019718,SCREENING,21,11,GENITOURINARY,Y,,"BASELINE, ANY DAY PRIOR TO FIRST DOSE",0,2002,1,BEFORE
NIDA-CTN-0002,MH,02_019718,SCREENING,22,11,GENITOURINARY,Y,,"BASELINE, ANY DAY PRIOR TO FIRST DOSE",0,2002,1,DURING/AFTER
NIDA-CTN-0002,MH,02_019718,SCREENING,19,10,HEPATIC,Y,,"BASELINE, ANY DAY PRIOR TO FIRST DOSE",0,2002,1,BEFORE
NIDA-CTN-0002,MH,02_019718,SCREENING,20,10,HEPATIC,Y,,"BASELINE, ANY DAY PRIOR TO FIRST DOSE",0,2002,1,DURING/AFTER
NIDA-CTN-0002,MH,02_019718,SCREENING,15,8,MUSCULOSKELETAL,Y,,"BASELINE, ANY DAY PRIOR TO FIRST DOSE",0,2002,1,BEFORE
NIDA-CTN-0002,MH,02_019718,SCREENING,16,8,MUSCULOSKELETAL,N,,"BASELINE, ANY DAY PRIOR TO FIRST DOSE",0,2002,1,DURING/AFTER
NIDA-CTN-0002,MH,02_019718,SCREENING,27,14,NEUROLOGICAL,N,,"BASELINE, ANY DAY PRIOR TO FIRST DOSE",0,2002,1,BEFORE
NIDA-CTN-0002,MH,02_019718,SCREENING,28,14,NEUROLOGICAL,N,,"BASELINE, ANY DAY PRIOR TO FIRST DOSE",0,2002,1,DURING/AFTER
NIDA-CTN-0002,MH,02_019718,SCREENING,33,17,OTHER,,NOT DONE,"BASELINE, ANY DAY PRIOR TO FIRST DOSE",0,2002,1,
NIDA-CTN-0002,MH,02_019718,SCREENING,25,13,PSYCHIATRIC,Y,,"BASELINE, ANY DAY PRIOR TO FIRST DOSE",0,2002,1,BEFORE
NIDA-CTN-0002,MH,02_019718,SCREENING,26,13,PSYCHIATRIC,N,,"BASELINE, ANY DAY PRIOR TO FIRST DOSE",0,2002,1,DURING/AFTER
NIDA-CTN-0002,MH,02_019718,SCREENING,7,4,RESPIRATORY,Y,,"BASELINE, ANY DAY PRIOR TO FIRST DOSE",0,2002,1,BEFORE
NIDA-CTN-0002,MH,02_019718,SCREENING,8,4,RESPIRATORY,N,,"BASELINE, ANY DAY PRIOR TO FIRST DOSE",0,2002,1,DURING/AFTER
NIDA-CTN-0002,MH,02_019718,SCREENING,29,15,SEIZURE,Y,,"BASELINE, ANY DAY PRIOR TO FIRST DOSE",0,2002,1,BEFORE
NIDA-CTN-0002,MH,02_019718,SCREENING,30,15,SEIZURE,N,,"BASELINE, ANY DAY PRIOR TO FIRST DOSE",0,2002,1,DURING/AFTER
NIDA-CTN-0002,MH,02_019718,SCREENING,13,7,SYMPTOMS OF TB,N,,"BASELINE, ANY DAY PRIOR TO FIRST DOSE",0,2002,1,BEFORE
NIDA-CTN-0002,MH,02_019718,SCREENING,14,7,SYMPTOMS OF TB,N,,"BASELINE, ANY DAY PRIOR TO FIRST DOSE",0,2002,1,DURING/AFTER
NIDA-CTN-0002,MH,02_019718,SCREENING,9,5,TB SKIN TEST POSITIVE,N,,"BASELINE, ANY DAY PRIOR TO FIRST DOSE",0,2002,1,BEFORE
NIDA-CTN-0002,MH,02_019718,SCREENING,10,5,TB SKIN TEST POSITIVE,N,,"BASELINE, ANY DAY PRIOR TO FIRST DOSE",0,2002,1,DURING/AFTER
NIDA-CTN-0002,MH,02_019718,SCREENING,11,6,X-RAY POSITIVE FOR TB,N,,"BASELINE, ANY DAY PRIOR TO FIRST DOSE",0,2002,1,BEFORE
NIDA-CTN-0002,MH,02_019718,SCREENING,12,6,X-RAY POSITIVE FOR TB,N,,"BASELINE, ANY DAY PRIOR TO FIRST DOSE",0,2002,1,DURING/AFTER
NIDA-CTN-0002,MH,02_020697,SCREENING,30,16,ALLERGIES,N,,"BASELINE, ANY DAY PRIOR TO FIRST DOSE",0,2002,-7,BEFORE
NIDA-CTN-0002,MH,02_020697,SCREENING,31,16,ALLERGIES,N,,"BASELINE, ANY DAY PRIOR TO FIRST DOSE",0,2002,-7,DURING/AFTER
NIDA-CTN-0002,MH,02_020697,SCREENING,5,3,CARDIOVASCULAR,N,,"BASELINE, ANY DAY PRIOR TO FIRST DOSE",0,2002,-7,BEFORE
NIDA-CTN-0002,MH,02_020697,SCREENING,6,3,CARDIOVASCULAR,N,,"BASELINE, ANY DAY PRIOR TO FIRST DOSE",0,2002,-7,DURING/AFTER
NIDA-CTN-0002,MH,02_020697,SCREENING,1,1,DERMATOLOGICAL,N,,"BASELINE, ANY DAY PRIOR TO FIRST DOSE",0,2002,-7,BEFORE
NIDA-CTN-0002,MH,02_020697,SCREENING,2,1,DERMATOLOGICAL,N,,"BASELINE, ANY DAY PRIOR TO FIRST DOSE",0,2002,-7,DURING/AFTER
NIDA-CTN-0002,MH,02_020697,SCREENING,22,12,ENDOCRINE,N,,"BASELINE, ANY DAY PRIOR TO FIRST DOSE",0,2002,-7,BEFORE
NIDA-CTN-0002,MH,02_020697,SCREENING,23,12,ENDOCRINE,N,,"BASELINE, ANY DAY PRIOR TO FIRST DOSE",0,2002,-7,DURING/AFTER
NIDA-CTN-0002,MH,02_020697,SCREENING,3,2,"EYES, EARS, NOSE, AND THROAT",N,,"BASELINE, ANY DAY PRIOR TO FIRST DOSE",0,2002,-7,BEFORE
NIDA-CTN-0002,MH,02_020697,SCREENING,4,2,"EYES, EARS, NOSE, AND THROAT",N,,"BASELINE, ANY DAY PRIOR TO FIRST DOSE",0,2002,-7,DURING/AFTER
NIDA-CTN-0002,MH,02_020697,SCREENING,16,9,GASTROINTESTINAL,N,,"BASELINE, ANY DAY PRIOR TO FIRST DOSE",0,2002,-7,BEFORE
NIDA-CTN-0002,MH,02_020697,SCREENING,17,9,GASTROINTESTINAL,N,,"BASELINE, ANY DAY PRIOR TO FIRST DOSE",0,2002,-7,DURING/AFTER
NIDA-CTN-0002,MH,02_020697,SCREENING,20,11,GENITOURINARY,N,,"BASELINE, ANY DAY PRIOR TO FIRST DOSE",0,2002,-7,BEFORE
NIDA-CTN-0002,MH,02_020697,SCREENING,21,11,GENITOURINARY,N,,"BASELINE, ANY DAY PRIOR TO FIRST DOSE",0,2002,-7,DURING/AFTER
NIDA-CTN-0002,MH,02_020697,SCREENING,18,10,HEPATIC,Y,,"BASELINE, ANY DAY PRIOR TO FIRST DOSE",0,2002,-7,BEFORE
NIDA-CTN-0002,MH,02_020697,SCREENING,19,10,HEPATIC,Y,,"BASELINE, ANY DAY PRIOR TO FIRST DOSE",0,2002,-7,DURING/AFTER
NIDA-CTN-0002,MH,02_020697,SCREENING,14,8,MUSCULOSKELETAL,N,,"BASELINE, ANY DAY PRIOR TO FIRST DOSE",0,2002,-7,BEFORE
NIDA-CTN-0002,MH,02_020697,SCREENING,15,8,MUSCULOSKELETAL,N,,"BASELINE, ANY DAY PRIOR TO FIRST DOSE",0,2002,-7,DURING/AFTER
NIDA-CTN-0002,MH,02_020697,SCREENING,26,14,NEUROLOGICAL,N,,"BASELINE, ANY DAY PRIOR TO FIRST DOSE",0,2002,-7,BEFORE
NIDA-CTN-0002,MH,02_020697,SCREENING,27,14,NEUROLOGICAL,N,,"BASELINE, ANY DAY PRIOR TO FIRST DOSE",0,2002,-7,DURING/AFTER
NIDA-CTN-0002,MH,02_020697,SCREENING,32,17,OTHER,Y,,"BASELINE, ANY DAY PRIOR TO FIRST DOSE",0,2002,-7,BEFORE
NIDA-CTN-0002,MH,02_020697,SCREENING,33,17,OTHER,Y,,"BASELINE, ANY DAY PRIOR TO FIRST DOSE",0,2002,-7,DURING/AFTER
NIDA-CTN-0002,MH,02_020697,SCREENING,24,13,PSYCHIATRIC,N,,"BASELINE, ANY DAY PRIOR TO FIRST DOSE",0,2002,-7,BEFORE
NIDA-CTN-0002,MH,02_020697,SCREENING,25,13,PSYCHIATRIC,N,,"BASELINE, ANY DAY PRIOR TO FIRST DOSE",0,2002,-7,DURING/AFTER
NIDA-CTN-0002,MH,02_020697,SCREENING,7,4,RESPIRATORY,N,,"BASELINE, ANY DAY PRIOR TO FIRST DOSE",0,2002,-7,BEFORE
NIDA-CTN-0002,MH,02_020697,SCREENING,8,4,RESPIRATORY,N,,"BASELINE, ANY DAY PRIOR TO FIRST DOSE",0,2002,-7,DURING/AFTER
NIDA-CTN-0002,MH,02_020697,SCREENING,28,15,SEIZURE,N,,"BASELINE, ANY DAY PRIOR TO FIRST DOSE",0,2002,-7,BEFORE
NIDA-CTN-0002,MH,02_020697,SCREENING,29,15,SEIZURE,N,,"BASELINE, ANY DAY PRIOR TO FIRST DOSE",0,2002,-7,DURING/AFTER
NIDA-CTN-0002,MH,02_020697,SCREENING,12,7,SYMPTOMS OF TB,N,,"BASELINE, ANY DAY PRIOR TO FIRST DOSE",0,2002,-7,BEFORE
NIDA-CTN-0002,MH,02_020697,SCREENING,13,7,SYMPTOMS OF TB,N,,"BASELINE, ANY DAY PRIOR TO FIRST DOSE",0,2002,-7,DURING/AFTER
NIDA-CTN-0002,MH,02_020697,SCREENING,9,5,TB SKIN TEST POSITIVE,N,,"BASELINE, ANY DAY PRIOR TO FIRST DOSE",0,2002,-7,BEFORE
NIDA-CTN-0002,MH,02_020697,SCREENING,10,5,TB SKIN TEST POSITIVE,N,,"BASELINE, ANY DAY PRIOR TO FIRST DOSE",0,2002,-7,DURING/AFTER
NIDA-CTN-0002,MH,02_020697,SCREENING,11,6,X-RAY POSITIVE FOR TB,,NOT DONE,"BASELINE, ANY DAY PRIOR TO FIRST DOSE",0,2002,-7,
NIDA-CTN-0002,MH,02_020889,SCREENING,29,16,ALLERGIES,N,,"BASELINE, ANY DAY PRIOR TO FIRST DOSE",0,2001," ",BEFORE
NIDA-CTN-0002,MH,02_020889,SCREENING,30,16,ALLERGIES,N,,"BASELINE, ANY DAY PRIOR TO FIRST DOSE",0,2001," ",DURING/AFTER
NIDA-CTN-0002,MH,02_020889,SCREENING,5,3,CARDIOVASCULAR,N,,"BASELINE, ANY DAY PRIOR TO FIRST DOSE",0,2001," ",BEFORE
NIDA-CTN-0002,MH,02_020889,SCREENING,6,3,CARDIOVASCULAR,Y,,"BASELINE, ANY DAY PRIOR TO FIRST DOSE",0,2001," ",DURING/AFTER
NIDA-CTN-0002,MH,02_020889,SCREENING,1,1,DERMATOLOGICAL,N,,"BASELINE, ANY DAY PRIOR TO FIRST DOSE",0,2001," ",BEFORE
NIDA-CTN-0002,MH,02_020889,SCREENING,2,1,DERMATOLOGICAL,N,,"BASELINE, ANY DAY PRIOR TO FIRST DOSE",0,2001," ",DURING/AFTER
NIDA-CTN-0002,MH,02_020889,SCREENING,21,12,ENDOCRINE,N,,"BASELINE, ANY DAY PRIOR TO FIRST DOSE",0,2001," ",BEFORE
NIDA-CTN-0002,MH,02_020889,SCREENING,22,12,ENDOCRINE,N,,"BASELINE, ANY DAY PRIOR TO FIRST DOSE",0,2001," ",DURING/AFTER
NIDA-CTN-0002,MH,02_020889,SCREENING,3,2,"EYES, EARS, NOSE, AND THROAT",N,,"BASELINE, ANY DAY PRIOR TO FIRST DOSE",0,2001," ",BEFORE
NIDA-CTN-0002,MH,02_020889,SCREENING,4,2,"EYES, EARS, NOSE, AND THROAT",N,,"BASELINE, ANY DAY PRIOR TO FIRST DOSE",0,2001," ",DURING/AFTER
NIDA-CTN-0002,MH,02_020889,SCREENING,15,9,GASTROINTESTINAL,N,,"BASELINE, ANY DAY PRIOR TO FIRST DOSE",0,2001," ",BEFORE
NIDA-CTN-0002,MH,02_020889,SCREENING,16,9,GASTROINTESTINAL,N,,"BASELINE, ANY DAY PRIOR TO FIRST DOSE",0,2001," ",DURING/AFTER
NIDA-CTN-0002,MH,02_020889,SCREENING,19,11,GENITOURINARY,N,,"BASELINE, ANY DAY PRIOR TO FIRST DOSE",0,2001," ",BEFORE
NIDA-CTN-0002,MH,02_020889,SCREENING,20,11,GENITOURINARY,N,,"BASELINE, ANY DAY PRIOR TO FIRST DOSE",0,2001," ",DURING/AFTER
NIDA-CTN-0002,MH,02_020889,SCREENING,17,10,HEPATIC,N,,"BASELINE, ANY DAY PRIOR TO FIRST DOSE",0,2001," ",BEFORE
NIDA-CTN-0002,MH,02_020889,SCREENING,18,10,HEPATIC,N,,"BASELINE, ANY DAY PRIOR TO FIRST DOSE",0,2001," ",DURING/AFTER
NIDA-CTN-0002,MH,02_020889,SCREENING,13,8,MUSCULOSKELETAL,N,,"BASELINE, ANY DAY PRIOR TO FIRST DOSE",0,2001," ",BEFORE
NIDA-CTN-0002,MH,02_020889,SCREENING,14,8,MUSCULOSKELETAL,N,,"BASELINE, ANY DAY PRIOR TO FIRST DOSE",0,2001," ",DURING/AFTER
NIDA-CTN-0002,MH,02_020889,SCREENING,25,14,NEUROLOGICAL,N,,"BASELINE, ANY DAY PRIOR TO FIRST DOSE",0,2001," ",BEFORE
NIDA-CTN-0002,MH,02_020889,SCREENING,26,14,NEUROLOGICAL,N,,"BASELINE, ANY DAY PRIOR TO FIRST DOSE",0,2001," ",DURING/AFTER
NIDA-CTN-0002,MH,02_020889,SCREENING,31,17,OTHER,,NOT DONE,"BASELINE, ANY DAY PRIOR TO FIRST DOSE",0,2001," ",
NIDA-CTN-0002,MH,02_020889,SCREENING,23,13,PSYCHIATRIC,N,,"BASELINE, ANY DAY PRIOR TO FIRST DOSE",0,2001," ",BEFORE
NIDA-CTN-0002,MH,02_020889,SCREENING,24,13,PSYCHIATRIC,N,,"BASELINE, ANY DAY PRIOR TO FIRST DOSE",0,2001," ",DURING/AFTER
NIDA-CTN-0002,MH,02_020889,SCREENING,7,4,RESPIRATORY,N,,"BASELINE, ANY DAY PRIOR TO FIRST DOSE",0,2001," ",BEFORE
NIDA-CTN-0002,MH,02_020889,SCREENING,8,4,RESPIRATORY,N,,"BASELINE, ANY DAY PRIOR TO FIRST DOSE",0,2001," ",DURING/AFTER
NIDA-CTN-0002,MH,02_020889,SCREENING,27,15,SEIZURE,N,,"BASELINE, ANY DAY PRIOR TO FIRST DOSE",0,2001," ",BEFORE
NIDA-CTN-0002,MH,02_020889,SCREENING,28,15,SEIZURE,N,,"BASELINE, ANY DAY PRIOR TO FIRST DOSE",0,2001," ",DURING/AFTER
NIDA-CTN-0002,MH,02_020889,SCREENING,11,7,SYMPTOMS OF TB,N,,"BASELINE, ANY DAY PRIOR TO FIRST DOSE",0,2001," ",BEFORE
NIDA-CTN-0002,MH,02_020889,SCREENING,12,7,SYMPTOMS OF TB,N,,"BASELINE, ANY DAY PRIOR TO FIRST DOSE",0,2001," ",DURING/AFTER
NIDA-CTN-0002,MH,02_020889,SCREENING,9,5,TB SKIN TEST POSITIVE,,NOT DONE,"BASELINE, ANY DAY PRIOR TO FIRST DOSE",0,2001," ",
NIDA-CTN-0002,MH,02_020889,SCREENING,10,6,X-RAY POSITIVE FOR TB,,NOT DONE,"BASELINE, ANY DAY PRIOR TO FIRST DOSE",0,2001," ",
NIDA-CTN-0002,MH,02_020931,SCREENING,17,16,ALLERGIES,N,,"BASELINE, ANY DAY PRIOR TO FIRST DOSE",0,2001," ",BEFORE
NIDA-CTN-0002,MH,02_020931,SCREENING,3,3,CARDIOVASCULAR,N,,"BASELINE, ANY DAY PRIOR TO FIRST DOSE",0,2001," ",BEFORE
NIDA-CTN-0002,MH,02_020931,SCREENING,1,1,DERMATOLOGICAL,N,,"BASELINE, ANY DAY PRIOR TO FIRST DOSE",0,2001," ",BEFORE
NIDA-CTN-0002,MH,02_020931,SCREENING,13,12,ENDOCRINE,N,,"BASELINE, ANY DAY PRIOR TO FIRST DOSE",0,2001," ",BEFORE
NIDA-CTN-0002,MH,02_020931,SCREENING,2,2,"EYES, EARS, NOSE, AND THROAT",N,,"BASELINE, ANY DAY PRIOR TO FIRST DOSE",0,2001," ",BEFORE
NIDA-CTN-0002,MH,02_020931,SCREENING,9,9,GASTROINTESTINAL,N,,"BASELINE, ANY DAY PRIOR TO FIRST DOSE",0,2001," ",BEFORE
NIDA-CTN-0002,MH,02_020931,SCREENING,11,11,GENITOURINARY,Y,,"BASELINE, ANY DAY PRIOR TO FIRST DOSE",0,2001," ",BEFORE
NIDA-CTN-0002,MH,02_020931,SCREENING,12,11,GENITOURINARY,N,,"BASELINE, ANY DAY PRIOR TO FIRST DOSE",0,2001," ",DURING/AFTER
NIDA-CTN-0002,MH,02_020931,SCREENING,10,10,HEPATIC,N,,"BASELINE, ANY DAY PRIOR TO FIRST DOSE",0,2001," ",BEFORE
NIDA-CTN-0002,MH,02_020931,SCREENING,8,8,MUSCULOSKELETAL,N,,"BASELINE, ANY DAY PRIOR TO FIRST DOSE",0,2001," ",BEFORE
NIDA-CTN-0002,MH,02_020931,SCREENING,15,14,NEUROLOGICAL,N,,"BASELINE, ANY DAY PRIOR TO FIRST DOSE",0,2001," ",BEFORE
NIDA-CTN-0002,MH,02_020931,SCREENING,18,17,OTHER,N,,"BASELINE, ANY DAY PRIOR TO FIRST DOSE",0,2001," ",BEFORE
NIDA-CTN-0002,MH,02_020931,SCREENING,14,13,PSYCHIATRIC,N,,"BASELINE, ANY DAY PRIOR TO FIRST DOSE",0,2001," ",BEFORE
NIDA-CTN-0002,MH,02_020931,SCREENING,4,4,RESPIRATORY,N,,"BASELINE, ANY DAY PRIOR TO FIRST DOSE",0,2001," ",BEFORE
NIDA-CTN-0002,MH,02_020931,SCREENING,16,15,SEIZURE,N,,"BASELINE, ANY DAY PRIOR TO FIRST DOSE",0,2001," ",BEFORE
NIDA-CTN-0002,MH,02_020931,SCREENING,7,7,SYMPTOMS OF TB,N,,"BASELINE, ANY DAY PRIOR TO FIRST DOSE",0,2001," ",BEFORE
NIDA-CTN-0002,MH,02_020931,SCREENING,5,5,TB SKIN TEST POSITIVE,N,,"BASELINE, ANY DAY PRIOR TO FIRST DOSE",0,2001," ",BEFORE
NIDA-CTN-0002,MH,02_020931,SCREENING,6,6,X-RAY POSITIVE FOR TB,N,,"BASELINE, ANY DAY PRIOR TO FIRST DOSE",0,2001," ",BEFORE
NIDA-CTN-0002,MH,02_021137,SCREENING,29,16,ALLERGIES,N,,"BASELINE, ANY DAY PRIOR TO FIRST DOSE",0,2001,-9,BEFORE
NIDA-CTN-0002,MH,02_021137,SCREENING,30,16,ALLERGIES,N,,"BASELINE, ANY DAY PRIOR TO FIRST DOSE",0,2001,-9,DURING/AFTER
NIDA-CTN-0002,MH,02_021137,SCREENING,5,3,CARDIOVASCULAR,N,,"BASELINE, ANY DAY PRIOR TO FIRST DOSE",0,2001,-9,BEFORE
NIDA-CTN-0002,MH,02_021137,SCREENING,6,3,CARDIOVASCULAR,N,,"BASELINE, ANY DAY PRIOR TO FIRST DOSE",0,2001,-9,DURING/AFTER
NIDA-CTN-0002,MH,02_021137,SCREENING,1,1,DERMATOLOGICAL,N,,"BASELINE, ANY DAY PRIOR TO FIRST DOSE",0,2001,-9,BEFORE
NIDA-CTN-0002,MH,02_021137,SCREENING,2,1,DERMATOLOGICAL,N,,"BASELINE, ANY DAY PRIOR TO FIRST DOSE",0,2001,-9,DURING/AFTER
NIDA-CTN-0002,MH,02_021137,SCREENING,21,12,ENDOCRINE,N,,"BASELINE, ANY DAY PRIOR TO FIRST DOSE",0,2001,-9,BEFORE
NIDA-CTN-0002,MH,02_021137,SCREENING,22,12,ENDOCRINE,N,,"BASELINE, ANY DAY PRIOR TO FIRST DOSE",0,2001,-9,DURING/AFTER
NIDA-CTN-0002,MH,02_021137,SCREENING,3,2,"EYES, EARS, NOSE, AND THROAT",N,,"BASELINE, ANY DAY PRIOR TO FIRST DOSE",0,2001,-9,BEFORE
NIDA-CTN-0002,MH,02_021137,SCREENING,4,2,"EYES, EARS, NOSE, AND THROAT",N,,"BASELINE, ANY DAY PRIOR TO FIRST DOSE",0,2001,-9,DURING/AFTER
NIDA-CTN-0002,MH,02_021137,SCREENING,15,9,GASTROINTESTINAL,N,,"BASELINE, ANY DAY PRIOR TO FIRST DOSE",0,2001,-9,BEFORE
NIDA-CTN-0002,MH,02_021137,SCREENING,16,9,GASTROINTESTINAL,N,,"BASELINE, ANY DAY PRIOR TO FIRST DOSE",0,2001,-9,DURING/AFTER
NIDA-CTN-0002,MH,02_021137,SCREENING,19,11,GENITOURINARY,N,,"BASELINE, ANY DAY PRIOR TO FIRST DOSE",0,2001,-9,BEFORE
NIDA-CTN-0002,MH,02_021137,SCREENING,20,11,GENITOURINARY,N,,"BASELINE, ANY DAY PRIOR TO FIRST DOSE",0,2001,-9,DURING/AFTER
NIDA-CTN-0002,MH,02_021137,SCREENING,17,10,HEPATIC,N,,"BASELINE, ANY DAY PRIOR TO FIRST DOSE",0,2001,-9,BEFORE
NIDA-CTN-0002,MH,02_021137,SCREENING,18,10,HEPATIC,N,,"BASELINE, ANY DAY PRIOR TO FIRST DOSE",0,2001,-9,DURING/AFTER
NIDA-CTN-0002,MH,02_021137,SCREENING,13,8,MUSCULOSKELETAL,N,,"BASELINE, ANY DAY PRIOR TO FIRST DOSE",0,2001,-9,BEFORE
NIDA-CTN-0002,MH,02_021137,SCREENING,14,8,MUSCULOSKELETAL,N,,"BASELINE, ANY DAY PRIOR TO FIRST DOSE",0,2001,-9,DURING/AFTER
NIDA-CTN-0002,MH,02_021137,SCREENING,25,14,NEUROLOGICAL,N,,"BASELINE, ANY DAY PRIOR TO FIRST DOSE",0,2001,-9,BEFORE
NIDA-CTN-0002,MH,02_021137,SCREENING,26,14,NEUROLOGICAL,N,,"BASELINE, ANY DAY PRIOR TO FIRST DOSE",0,2001,-9,DURING/AFTER
NIDA-CTN-0002,MH,02_021137,SCREENING,31,17,OTHER,,NOT DONE,"BASELINE, ANY DAY PRIOR TO FIRST DOSE",0,2001,-9,
NIDA-CTN-0002,MH,02_021137,SCREENING,23,13,PSYCHIATRIC,N,,"BASELINE, ANY DAY PRIOR TO FIRST DOSE",0,2001,-9,BEFORE
NIDA-CTN-0002,MH,02_021137,SCREENING,24,13,PSYCHIATRIC,N,,"BASELINE, ANY DAY PRIOR TO FIRST DOSE",0,2001,-9,DURING/AFTER
NIDA-CTN-0002,MH,02_021137,SCREENING,7,4,RESPIRATORY,Y,,"BASELINE, ANY DAY PRIOR TO FIRST DOSE",0,2001,-9,BEFORE
NIDA-CTN-0002,MH,02_021137,SCREENING,8,4,RESPIRATORY,Y,,"BASELINE, ANY DAY PRIOR TO FIRST DOSE",0,2001,-9,DURING/AFTER
NIDA-CTN-0002,MH,02_021137,SCREENING,27,15,SEIZURE,N,,"BASELINE, ANY DAY PRIOR TO FIRST DOSE",0,2001,-9,BEFORE
NIDA-CTN-0002,MH,02_021137,SCREENING,28,15,SEIZURE,N,,"BASELINE, ANY DAY PRIOR TO FIRST DOSE",0,2001,-9,DURING/AFTER
NIDA-CTN-0002,MH,02_021137,SCREENING,12,7,SYMPTOMS OF TB,,NOT DONE,"BASELINE, ANY DAY PRIOR TO FIRST DOSE",0,2001,-9,
NIDA-CTN-0002,MH,02_021137,SCREENING,9,5,TB SKIN TEST POSITIVE,Y,,"BASELINE, ANY DAY PRIOR TO FIRST DOSE",0,2001,-9,BEFORE
NIDA-CTN-0002,MH,02_021137,SCREENING,10,5,TB SKIN TEST POSITIVE,N,,"BASELINE, ANY DAY PRIOR TO FIRST DOSE",0,2001,-9,DURING/AFTER
NIDA-CTN-0002,MH,02_021137,SCREENING,11,6,X-RAY POSITIVE FOR TB,,NOT DONE,"BASELINE, ANY DAY PRIOR TO FIRST DOSE",0,2001,-9,
NIDA-CTN-0002,MH,02_021152,SCREENING,29,16,ALLERGIES,Y,,"BASELINE, ANY DAY PRIOR TO FIRST DOSE",0,2001,-1,BEFORE
NIDA-CTN-0002,MH,02_021152,SCREENING,30,16,ALLERGIES,Y,,"BASELINE, ANY DAY PRIOR TO FIRST DOSE",0,2001,-1,DURING/AFTER
NIDA-CTN-0002,MH,02_021152,SCREENING,5,3,CARDIOVASCULAR,N,,"BASELINE, ANY DAY PRIOR TO FIRST DOSE",0,2001,-1,BEFORE
NIDA-CTN-0002,MH,02_021152,SCREENING,6,3,CARDIOVASCULAR,N,,"BASELINE, ANY DAY PRIOR TO FIRST DOSE",0,2001,-1,DURING/AFTER
NIDA-CTN-0002,MH,02_021152,SCREENING,1,1,DERMATOLOGICAL,N,,"BASELINE, ANY DAY PRIOR TO FIRST DOSE",0,2001,-1,BEFORE
NIDA-CTN-0002,MH,02_021152,SCREENING,2,1,DERMATOLOGICAL,N,,"BASELINE, ANY DAY PRIOR TO FIRST DOSE",0,2001,-1,DURING/AFTER
NIDA-CTN-0002,MH,02_021152,SCREENING,21,12,ENDOCRINE,N,,"BASELINE, ANY DAY PRIOR TO FIRST DOSE",0,2001,-1,BEFORE
NIDA-CTN-0002,MH,02_021152,SCREENING,22,12,ENDOCRINE,N,,"BASELINE, ANY DAY PRIOR TO FIRST DOSE",0,2001,-1,DURING/AFTER
NIDA-CTN-0002,MH,02_021152,SCREENING,3,2,"EYES, EARS, NOSE, AND THROAT",N,,"BASELINE, ANY DAY PRIOR TO FIRST DOSE",0,2001,-1,BEFORE
NIDA-CTN-0002,MH,02_021152,SCREENING,4,2,"EYES, EARS, NOSE, AND THROAT",N,,"BASELINE, ANY DAY PRIOR TO FIRST DOSE",0,2001,-1,DURING/AFTER
NIDA-CTN-0002,MH,02_021152,SCREENING,15,9,GASTROINTESTINAL,Y,,"BASELINE, ANY DAY PRIOR TO FIRST DOSE",0,2001,-1,BEFORE
NIDA-CTN-0002,MH,02_021152,SCREENING,16,9,GASTROINTESTINAL,Y,,"BASELINE, ANY DAY PRIOR TO FIRST DOSE",0,2001,-1,DURING/AFTER
NIDA-CTN-0002,MH,02_021152,SCREENING,19,11,GENITOURINARY,N,,"BASELINE, ANY DAY PRIOR TO FIRST DOSE",0,2001,-1,BEFORE
NIDA-CTN-0002,MH,02_021152,SCREENING,20,11,GENITOURINARY,N,,"BASELINE, ANY DAY PRIOR TO FIRST DOSE",0,2001,-1,DURING/AFTER
NIDA-CTN-0002,MH,02_021152,SCREENING,17,10,HEPATIC,N,,"BASELINE, ANY DAY PRIOR TO FIRST DOSE",0,2001,-1,BEFORE
NIDA-CTN-0002,MH,02_021152,SCREENING,18,10,HEPATIC,N,,"BASELINE, ANY DAY PRIOR TO FIRST DOSE",0,2001,-1,DURING/AFTER
NIDA-CTN-0002,MH,02_021152,SCREENING,13,8,MUSCULOSKELETAL,Y,,"BASELINE, ANY DAY PRIOR TO FIRST DOSE",0,2001,-1,BEFORE
NIDA-CTN-0002,MH,02_021152,SCREENING,14,8,MUSCULOSKELETAL,Y,,"BASELINE, ANY DAY PRIOR TO FIRST DOSE",0,2001,-1,DURING/AFTER
NIDA-CTN-0002,MH,02_021152,SCREENING,25,14,NEUROLOGICAL,N,,"BASELINE, ANY DAY PRIOR TO FIRST DOSE",0,2001,-1,BEFORE
NIDA-CTN-0002,MH,02_021152,SCREENING,26,14,NEUROLOGICAL,N,,"BASELINE, ANY DAY PRIOR TO FIRST DOSE",0,2001,-1,DURING/AFTER
NIDA-CTN-0002,MH,02_021152,SCREENING,31,17,OTHER,Y,,"BASELINE, ANY DAY PRIOR TO FIRST DOSE",0,2001,-1,BEFORE
NIDA-CTN-0002,MH,02_021152,SCREENING,32,17,OTHER,Y,,"BASELINE, ANY DAY PRIOR TO FIRST DOSE",0,2001,-1,DURING/AFTER
NIDA-CTN-0002,MH,02_021152,SCREENING,23,13,PSYCHIATRIC,N,,"BASELINE, ANY DAY PRIOR TO FIRST DOSE",0,2001,-1,BEFORE
NIDA-CTN-0002,MH,02_021152,SCREENING,24,13,PSYCHIATRIC,N,,"BASELINE, ANY DAY PRIOR TO FIRST DOSE",0,2001,-1,DURING/AFTER
NIDA-CTN-0002,MH,02_021152,SCREENING,7,4,RESPIRATORY,N,,"BASELINE, ANY DAY PRIOR TO FIRST DOSE",0,2001,-1,BEFORE
NIDA-CTN-0002,MH,02_021152,SCREENING,8,4,RESPIRATORY,N,,"BASELINE, ANY DAY PRIOR TO FIRST DOSE",0,2001,-1,DURING/AFTER
NIDA-CTN-0002,MH,02_021152,SCREENING,27,15,SEIZURE,N,,"BASELINE, ANY DAY PRIOR TO FIRST DOSE",0,2001,-1,BEFORE
NIDA-CTN-0002,MH,02_021152,SCREENING,28,15,SEIZURE,N,,"BASELINE, ANY DAY PRIOR TO FIRST DOSE",0,2001,-1,DURING/AFTER
NIDA-CTN-0002,MH,02_021152,SCREENING,11,7,SYMPTOMS OF TB,N,,"BASELINE, ANY DAY PRIOR TO FIRST DOSE",0,2001,-1,BEFORE
NIDA-CTN-0002,MH,02_021152,SCREENING,12,7,SYMPTOMS OF TB,N,,"BASELINE, ANY DAY PRIOR TO FIRST DOSE",0,2001,-1,DURING/AFTER
NIDA-CTN-0002,MH,02_021152,SCREENING,9,5,TB SKIN TEST POSITIVE,,NOT DONE,"BASELINE, ANY DAY PRIOR TO FIRST DOSE",0,2001,-1,
NIDA-CTN-0002,MH,02_021152,SCREENING,10,6,X-RAY POSITIVE FOR TB,,NOT DONE,"BASELINE, ANY DAY PRIOR TO FIRST DOSE",0,2001,-1,
NIDA-CTN-0002,MH,02_021273,SCREENING,31,16,ALLERGIES,N,,"BASELINE, ANY DAY PRIOR TO FIRST DOSE",0,2001,1,BEFORE
NIDA-CTN-0002,MH,02_021273,SCREENING,32,16,ALLERGIES,N,,"BASELINE, ANY DAY PRIOR TO FIRST DOSE",0,2001,1,DURING/AFTER
NIDA-CTN-0002,MH,02_021273,SCREENING,5,3,CARDIOVASCULAR,N,,"BASELINE, ANY DAY PRIOR TO FIRST DOSE",0,2001,1,BEFORE
NIDA-CTN-0002,MH,02_021273,SCREENING,6,3,CARDIOVASCULAR,N,,"BASELINE, ANY DAY PRIOR TO FIRST DOSE",0,2001,1,DURING/AFTER
NIDA-CTN-0002,MH,02_021273,SCREENING,1,1,DERMATOLOGICAL,Y,,"BASELINE, ANY DAY PRIOR TO FIRST DOSE",0,2001,1,BEFORE
NIDA-CTN-0002,MH,02_021273,SCREENING,2,1,DERMATOLOGICAL,Y,,"BASELINE, ANY DAY PRIOR TO FIRST DOSE",0,2001,1,DURING/AFTER
NIDA-CTN-0002,MH,02_021273,SCREENING,23,12,ENDOCRINE,N,,"BASELINE, ANY DAY PRIOR TO FIRST DOSE",0,2001,1,BEFORE
NIDA-CTN-0002,MH,02_021273,SCREENING,24,12,ENDOCRINE,N,,"BASELINE, ANY DAY PRIOR TO FIRST DOSE",0,2001,1,DURING/AFTER
NIDA-CTN-0002,MH,02_021273,SCREENING,3,2,"EYES, EARS, NOSE, AND THROAT",N,,"BASELINE, ANY DAY PRIOR TO FIRST DOSE",0,2001,1,BEFORE
NIDA-CTN-0002,MH,02_021273,SCREENING,4,2,"EYES, EARS, NOSE, AND THROAT",N,,"BASELINE, ANY DAY PRIOR TO FIRST DOSE",0,2001,1,DURING/AFTER
NIDA-CTN-0002,MH,02_021273,SCREENING,17,9,GASTROINTESTINAL,N,,"BASELINE, ANY DAY PRIOR TO FIRST DOSE",0,2001,1,BEFORE
NIDA-CTN-0002,MH,02_021273,SCREENING,18,9,GASTROINTESTINAL,N,,"BASELINE, ANY DAY PRIOR TO FIRST DOSE",0,2001,1,DURING/AFTER
NIDA-CTN-0002,MH,02_021273,SCREENING,21,11,GENITOURINARY,N,,"BASELINE, ANY DAY PRIOR TO FIRST DOSE",0,2001,1,BEFORE
NIDA-CTN-0002,MH,02_021273,SCREENING,22,11,GENITOURINARY,N,,"BASELINE, ANY DAY PRIOR TO FIRST DOSE",0,2001,1,DURING/AFTER
NIDA-CTN-0002,MH,02_021273,SCREENING,19,10,HEPATIC,N,,"BASELINE, ANY DAY PRIOR TO FIRST DOSE",0,2001,1,BEFORE
NIDA-CTN-0002,MH,02_021273,SCREENING,20,10,HEPATIC,N,,"BASELINE, ANY DAY PRIOR TO FIRST DOSE",0,2001,1,DURING/AFTER
NIDA-CTN-0002,MH,02_021273,SCREENING,15,8,MUSCULOSKELETAL,N,,"BASELINE, ANY DAY PRIOR TO FIRST DOSE",0,2001,1,BEFORE
NIDA-CTN-0002,MH,02_021273,SCREENING,16,8,MUSCULOSKELETAL,N,,"BASELINE, ANY DAY PRIOR TO FIRST DOSE",0,2001,1,DURING/AFTER
NIDA-CTN-0002,MH,02_021273,SCREENING,27,14,NEUROLOGICAL,N,,"BASELINE, ANY DAY PRIOR TO FIRST DOSE",0,2001,1,BEFORE
NIDA-CTN-0002,MH,02_021273,SCREENING,28,14,NEUROLOGICAL,N,,"BASELINE, ANY DAY PRIOR TO FIRST DOSE",0,2001,1,DURING/AFTER
NIDA-CTN-0002,MH,02_021273,SCREENING,33,17,OTHER,Y,,"BASELINE, ANY DAY PRIOR TO FIRST DOSE",0,2001,1,BEFORE
NIDA-CTN-0002,MH,02_021273,SCREENING,34,17,OTHER,N,,"BASELINE, ANY DAY PRIOR TO FIRST DOSE",0,2001,1,DURING/AFTER
NIDA-CTN-0002,MH,02_021273,SCREENING,25,13,PSYCHIATRIC,Y,,"BASELINE, ANY DAY PRIOR TO FIRST DOSE",0,2001,1,BEFORE
NIDA-CTN-0002,MH,02_021273,SCREENING,26,13,PSYCHIATRIC,N,,"BASELINE, ANY DAY PRIOR TO FIRST DOSE",0,2001,1,DURING/AFTER
NIDA-CTN-0002,MH,02_021273,SCREENING,7,4,RESPIRATORY,N,,"BASELINE, ANY DAY PRIOR TO FIRST DOSE",0,2001,1,BEFORE
NIDA-CTN-0002,MH,02_021273,SCREENING,8,4,RESPIRATORY,N,,"BASELINE, ANY DAY PRIOR TO FIRST DOSE",0,2001,1,DURING/AFTER
NIDA-CTN-0002,MH,02_021273,SCREENING,29,15,SEIZURE,N,,"BASELINE, ANY DAY PRIOR TO FIRST DOSE",0,2001,1,BEFORE
NIDA-CTN-0002,MH,02_021273,SCREENING,30,15,SEIZURE,N,,"BASELINE, ANY DAY PRIOR TO FIRST DOSE",0,2001,1,DURING/AFTER
NIDA-CTN-0002,MH,02_021273,SCREENING,13,7,SYMPTOMS OF TB,N,,"BASELINE, ANY DAY PRIOR TO FIRST DOSE",0,2001,1,BEFORE
NIDA-CTN-0002,MH,02_021273,SCREENING,14,7,SYMPTOMS OF TB,N,,"BASELINE, ANY DAY PRIOR TO FIRST DOSE",0,2001,1,DURING/AFTER
NIDA-CTN-0002,MH,02_021273,SCREENING,9,5,TB SKIN TEST POSITIVE,Y,,"BASELINE, ANY DAY PRIOR TO FIRST DOSE",0,2001,1,BEFORE
NIDA-CTN-0002,MH,02_021273,SCREENING,10,5,TB SKIN TEST POSITIVE,Y,,"BASELINE, ANY DAY PRIOR TO FIRST DOSE",0,2001,1,DURING/AFTER
NIDA-CTN-0002,MH,02_021273,SCREENING,11,6,X-RAY POSITIVE FOR TB,N,,"BASELINE, ANY DAY PRIOR TO FIRST DOSE",0,2001,1,BEFORE
NIDA-CTN-0002,MH,02_021273,SCREENING,12,6,X-RAY POSITIVE FOR TB,N,,"BASELINE, ANY DAY PRIOR TO FIRST DOSE",0,2001,1,DURING/AFTER
NIDA-CTN-0002,MH,02_021463,SCREENING,18,16,ALLERGIES,Y,,"BASELINE, ANY DAY PRIOR TO FIRST DOSE",0,2001,1,BEFORE
NIDA-CTN-0002,MH,02_021463,SCREENING,19,16,ALLERGIES,N,,"BASELINE, ANY DAY PRIOR TO FIRST DOSE",0,2001,1,DURING/AFTER
NIDA-CTN-0002,MH,02_021463,SCREENING,4,3,CARDIOVASCULAR,N,,"BASELINE, ANY DAY PRIOR TO FIRST DOSE",0,2001,1,BEFORE
NIDA-CTN-0002,MH,02_021463,SCREENING,1,1,DERMATOLOGICAL,Y,,"BASELINE, ANY DAY PRIOR TO FIRST DOSE",0,2001,1,BEFORE
NIDA-CTN-0002,MH,02_021463,SCREENING,2,1,DERMATOLOGICAL,Y,,"BASELINE, ANY DAY PRIOR TO FIRST DOSE",0,2001,1,DURING/AFTER
NIDA-CTN-0002,MH,02_021463,SCREENING,14,12,ENDOCRINE,N,,"BASELINE, ANY DAY PRIOR TO FIRST DOSE",0,2001,1,BEFORE
NIDA-CTN-0002,MH,02_021463,SCREENING,3,2,"EYES, EARS, NOSE, AND THROAT",N,,"BASELINE, ANY DAY PRIOR TO FIRST DOSE",0,2001,1,BEFORE
NIDA-CTN-0002,MH,02_021463,SCREENING,11,9,GASTROINTESTINAL,N,,"BASELINE, ANY DAY PRIOR TO FIRST DOSE",0,2001,1,BEFORE
NIDA-CTN-0002,MH,02_021463,SCREENING,13,11,GENITOURINARY,N,,"BASELINE, ANY DAY PRIOR TO FIRST DOSE",0,2001,1,BEFORE
NIDA-CTN-0002,MH,02_021463,SCREENING,12,10,HEPATIC,N,,"BASELINE, ANY DAY PRIOR TO FIRST DOSE",0,2001,1,BEFORE
NIDA-CTN-0002,MH,02_021463,SCREENING,10,8,MUSCULOSKELETAL,N,,"BASELINE, ANY DAY PRIOR TO FIRST DOSE",0,2001,1,BEFORE
NIDA-CTN-0002,MH,02_021463,SCREENING,16,14,NEUROLOGICAL,N,,"BASELINE, ANY DAY PRIOR TO FIRST DOSE",0,2001,1,BEFORE
NIDA-CTN-0002,MH,02_021463,SCREENING,20,17,OTHER,N,,"BASELINE, ANY DAY PRIOR TO FIRST DOSE",0,2001,1,BEFORE
NIDA-CTN-0002,MH,02_021463,SCREENING,15,13,PSYCHIATRIC,N,,"BASELINE, ANY DAY PRIOR TO FIRST DOSE",0,2001,1,BEFORE
NIDA-CTN-0002,MH,02_021463,SCREENING,5,4,RESPIRATORY,Y,,"BASELINE, ANY DAY PRIOR TO FIRST DOSE",0,2001,1,BEFORE
NIDA-CTN-0002,MH,02_021463,SCREENING,6,4,RESPIRATORY,Y,,"BASELINE, ANY DAY PRIOR TO FIRST DOSE",0,2001,1,DURING/AFTER
NIDA-CTN-0002,MH,02_021463,SCREENING,17,15,SEIZURE,N,,"BASELINE, ANY DAY PRIOR TO FIRST DOSE",0,2001,1,BEFORE
NIDA-CTN-0002,MH,02_021463,SCREENING,9,7,SYMPTOMS OF TB,N,,"BASELINE, ANY DAY PRIOR TO FIRST DOSE",0,2001,1,BEFORE
NIDA-CTN-0002,MH,02_021463,SCREENING,7,5,TB SKIN TEST POSITIVE,N,,"BASELINE, ANY DAY PRIOR TO FIRST DOSE",0,2001,1,BEFORE
NIDA-CTN-0002,MH,02_021463,SCREENING,8,6,X-RAY POSITIVE FOR TB,N,,"BASELINE, ANY DAY PRIOR TO FIRST DOSE",0,2001,1,BEFORE
NIDA-CTN-0002,MH,02_021976,SCREENING,31,16,ALLERGIES,N,,"BASELINE, ANY DAY PRIOR TO FIRST DOSE",0,2001,-1,BEFORE
NIDA-CTN-0002,MH,02_021976,SCREENING,32,16,ALLERGIES,N,,"BASELINE, ANY DAY PRIOR TO FIRST DOSE",0,2001,-1,DURING/AFTER
NIDA-CTN-0002,MH,02_021976,SCREENING,5,3,CARDIOVASCULAR,N,,"BASELINE, ANY DAY PRIOR TO FIRST DOSE",0,2001,-1,BEFORE
NIDA-CTN-0002,MH,02_021976,SCREENING,6,3,CARDIOVASCULAR,N,,"BASELINE, ANY DAY PRIOR TO FIRST DOSE",0,2001,-1,DURING/AFTER
NIDA-CTN-0002,MH,02_021976,SCREENING,1,1,DERMATOLOGICAL,Y,,"BASELINE, ANY DAY PRIOR TO FIRST DOSE",0,2001,-1,BEFORE
NIDA-CTN-0002,MH,02_021976,SCREENING,2,1,DERMATOLOGICAL,N,,"BASELINE, ANY DAY PRIOR TO FIRST DOSE",0,2001,-1,DURING/AFTER
NIDA-CTN-0002,MH,02_021976,SCREENING,23,12,ENDOCRINE,N,,"BASELINE, ANY DAY PRIOR TO FIRST DOSE",0,2001,-1,BEFORE
NIDA-CTN-0002,MH,02_021976,SCREENING,24,12,ENDOCRINE,N,,"BASELINE, ANY DAY PRIOR TO FIRST DOSE",0,2001,-1,DURING/AFTER
NIDA-CTN-0002,MH,02_021976,SCREENING,3,2,"EYES, EARS, NOSE, AND THROAT",N,,"BASELINE, ANY DAY PRIOR TO FIRST DOSE",0,2001,-1,BEFORE
NIDA-CTN-0002,MH,02_021976,SCREENING,4,2,"EYES, EARS, NOSE, AND THROAT",Y,,"BASELINE, ANY DAY PRIOR TO FIRST DOSE",0,2001,-1,DURING/AFTER
NIDA-CTN-0002,MH,02_021976,SCREENING,17,9,GASTROINTESTINAL,N,,"BASELINE, ANY DAY PRIOR TO FIRST DOSE",0,2001,-1,BEFORE
NIDA-CTN-0002,MH,02_021976,SCREENING,18,9,GASTROINTESTINAL,N,,"BASELINE, ANY DAY PRIOR TO FIRST DOSE",0,2001,-1,DURING/AFTER
NIDA-CTN-0002,MH,02_021976,SCREENING,21,11,GENITOURINARY,Y,,"BASELINE, ANY DAY PRIOR TO FIRST DOSE",0,2001,-1,BEFORE
NIDA-CTN-0002,MH,02_021976,SCREENING,22,11,GENITOURINARY,Y,,"BASELINE, ANY DAY PRIOR TO FIRST DOSE",0,2001,-1,DURING/AFTER
NIDA-CTN-0002,MH,02_021976,SCREENING,19,10,HEPATIC,N,,"BASELINE, ANY DAY PRIOR TO FIRST DOSE",0,2001,-1,BEFORE
NIDA-CTN-0002,MH,02_021976,SCREENING,20,10,HEPATIC,N,,"BASELINE, ANY DAY PRIOR TO FIRST DOSE",0,2001,-1,DURING/AFTER
NIDA-CTN-0002,MH,02_021976,SCREENING,15,8,MUSCULOSKELETAL,N,,"BASELINE, ANY DAY PRIOR TO FIRST DOSE",0,2001,-1,BEFORE
NIDA-CTN-0002,MH,02_021976,SCREENING,16,8,MUSCULOSKELETAL,N,,"BASELINE, ANY DAY PRIOR TO FIRST DOSE",0,2001,-1,DURING/AFTER
NIDA-CTN-0002,MH,02_021976,SCREENING,27,14,NEUROLOGICAL,N,,"BASELINE, ANY DAY PRIOR TO FIRST DOSE",0,2001,-1,BEFORE
NIDA-CTN-0002,MH,02_021976,SCREENING,28,14,NEUROLOGICAL,Y,,"BASELINE, ANY DAY PRIOR TO FIRST DOSE",0,2001,-1,DURING/AFTER
NIDA-CTN-0002,MH,02_021976,SCREENING,33,17,OTHER,Y,,"BASELINE, ANY DAY PRIOR TO FIRST DOSE",0,2001,-1,BEFORE
NIDA-CTN-0002,MH,02_021976,SCREENING,34,17,OTHER,Y,,"BASELINE, ANY DAY PRIOR TO FIRST DOSE",0,2001,-1,DURING/AFTER
NIDA-CTN-0002,MH,02_021976,SCREENING,25,13,PSYCHIATRIC,N,,"BASELINE, ANY DAY PRIOR TO FIRST DOSE",0,2001,-1,BEFORE
NIDA-CTN-0002,MH,02_021976,SCREENING,26,13,PSYCHIATRIC,N,,"BASELINE, ANY DAY PRIOR TO FIRST DOSE",0,2001,-1,DURING/AFTER
NIDA-CTN-0002,MH,02_021976,SCREENING,7,4,RESPIRATORY,N,,"BASELINE, ANY DAY PRIOR TO FIRST DOSE",0,2001,-1,BEFORE
NIDA-CTN-0002,MH,02_021976,SCREENING,8,4,RESPIRATORY,N,,"BASELINE, ANY DAY PRIOR TO FIRST DOSE",0,2001,-1,DURING/AFTER
NIDA-CTN-0002,MH,02_021976,SCREENING,29,15,SEIZURE,N,,"BASELINE, ANY DAY PRIOR TO FIRST DOSE",0,2001,-1,BEFORE
NIDA-CTN-0002,MH,02_021976,SCREENING,30,15,SEIZURE,N,,"BASELINE, ANY DAY PRIOR TO FIRST DOSE",0,2001,-1,DURING/AFTER
NIDA-CTN-0002,MH,02_021976,SCREENING,12,7,SYMPTOMS OF TB,,NOT DONE,"BASELINE, ANY DAY PRIOR TO FIRST DOSE",0,2001,-1,
NIDA-CTN-0002,MH,02_021976,SCREENING,13,7,SYMPTOMS OF TB,N,,"BASELINE, ANY DAY PRIOR TO FIRST DOSE",0,2001,-1,BEFORE
NIDA-CTN-0002,MH,02_021976,SCREENING,14,7,SYMPTOMS OF TB,N,,"BASELINE, ANY DAY PRIOR TO FIRST DOSE",0,2001,-1,DURING/AFTER
NIDA-CTN-0002,MH,02_021976,SCREENING,9,5,TB SKIN TEST POSITIVE,N,,"BASELINE, ANY DAY PRIOR TO FIRST DOSE",0,2001,-1,BEFORE
NIDA-CTN-0002,MH,02_021976,SCREENING,10,5,TB SKIN TEST POSITIVE,N,,"BASELINE, ANY DAY PRIOR TO FIRST DOSE",0,2001,-1,DURING/AFTER
NIDA-CTN-0002,MH,02_021976,SCREENING,11,6,X-RAY POSITIVE FOR TB,,NOT DONE,"BASELINE, ANY DAY PRIOR TO FIRST DOSE",0,2001,-1,
NIDA-CTN-0002,MH,02_022290,SCREENING,31,16,ALLERGIES,N,,"BASELINE, ANY DAY PRIOR TO FIRST DOSE",0,2001,1,BEFORE
NIDA-CTN-0002,MH,02_022290,SCREENING,32,16,ALLERGIES,N,,"BASELINE, ANY DAY PRIOR TO FIRST DOSE",0,2001,1,DURING/AFTER
NIDA-CTN-0002,MH,02_022290,SCREENING,5,3,CARDIOVASCULAR,N,,"BASELINE, ANY DAY PRIOR TO FIRST DOSE",0,2001,1,BEFORE
NIDA-CTN-0002,MH,02_022290,SCREENING,6,3,CARDIOVASCULAR,N,,"BASELINE, ANY DAY PRIOR TO FIRST DOSE",0,2001,1,DURING/AFTER
NIDA-CTN-0002,MH,02_022290,SCREENING,1,1,DERMATOLOGICAL,N,,"BASELINE, ANY DAY PRIOR TO FIRST DOSE",0,2001,1,BEFORE
NIDA-CTN-0002,MH,02_022290,SCREENING,2,1,DERMATOLOGICAL,N,,"BASELINE, ANY DAY PRIOR TO FIRST DOSE",0,2001,1,DURING/AFTER
NIDA-CTN-0002,MH,02_022290,SCREENING,23,12,ENDOCRINE,N,,"BASELINE, ANY DAY PRIOR TO FIRST DOSE",0,2001,1,BEFORE
NIDA-CTN-0002,MH,02_022290,SCREENING,24,12,ENDOCRINE,N,,"BASELINE, ANY DAY PRIOR TO FIRST DOSE",0,2001,1,DURING/AFTER
NIDA-CTN-0002,MH,02_022290,SCREENING,3,2,"EYES, EARS, NOSE, AND THROAT",N,,"BASELINE, ANY DAY PRIOR TO FIRST DOSE",0,2001,1,BEFORE
NIDA-CTN-0002,MH,02_022290,SCREENING,4,2,"EYES, EARS, NOSE, AND THROAT",N,,"BASELINE, ANY DAY PRIOR TO FIRST DOSE",0,2001,1,DURING/AFTER
NIDA-CTN-0002,MH,02_022290,SCREENING,17,9,GASTROINTESTINAL,N,,"BASELINE, ANY DAY PRIOR TO FIRST DOSE",0,2001,1,BEFORE
NIDA-CTN-0002,MH,02_022290,SCREENING,18,9,GASTROINTESTINAL,N,,"BASELINE, ANY DAY PRIOR TO FIRST DOSE",0,2001,1,DURING/AFTER
NIDA-CTN-0002,MH,02_022290,SCREENING,21,11,GENITOURINARY,N,,"BASELINE, ANY DAY PRIOR TO FIRST DOSE",0,2001,1,BEFORE
NIDA-CTN-0002,MH,02_022290,SCREENING,22,11,GENITOURINARY,N,,"BASELINE, ANY DAY PRIOR TO FIRST DOSE",0,2001,1,DURING/AFTER
NIDA-CTN-0002,MH,02_022290,SCREENING,19,10,HEPATIC,N,,"BASELINE, ANY DAY PRIOR TO FIRST DOSE",0,2001,1,BEFORE
NIDA-CTN-0002,MH,02_022290,SCREENING,20,10,HEPATIC,N,,"BASELINE, ANY DAY PRIOR TO FIRST DOSE",0,2001,1,DURING/AFTER
NIDA-CTN-0002,MH,02_022290,SCREENING,15,8,MUSCULOSKELETAL,N,,"BASELINE, ANY DAY PRIOR TO FIRST DOSE",0,2001,1,BEFORE
NIDA-CTN-0002,MH,02_022290,SCREENING,16,8,MUSCULOSKELETAL,N,,"BASELINE, ANY DAY PRIOR TO FIRST DOSE",0,2001,1,DURING/AFTER
NIDA-CTN-0002,MH,02_022290,SCREENING,27,14,NEUROLOGICAL,N,,"BASELINE, ANY DAY PRIOR TO FIRST DOSE",0,2001,1,BEFORE
NIDA-CTN-0002,MH,02_022290,SCREENING,28,14,NEUROLOGICAL,N,,"BASELINE, ANY DAY PRIOR TO FIRST DOSE",0,2001,1,DURING/AFTER
NIDA-CTN-0002,MH,02_022290,SCREENING,33,17,OTHER,,NOT DONE,"BASELINE, ANY DAY PRIOR TO FIRST DOSE",0,2001,1,
NIDA-CTN-0002,MH,02_022290,SCREENING,25,13,PSYCHIATRIC,Y,,"BASELINE, ANY DAY PRIOR TO FIRST DOSE",0,2001,1,BEFORE
NIDA-CTN-0002,MH,02_022290,SCREENING,26,13,PSYCHIATRIC,N,,"BASELINE, ANY DAY PRIOR TO FIRST DOSE",0,2001,1,DURING/AFTER
NIDA-CTN-0002,MH,02_022290,SCREENING,7,4,RESPIRATORY,N,,"BASELINE, ANY DAY PRIOR TO FIRST DOSE",0,2001,1,BEFORE
NIDA-CTN-0002,MH,02_022290,SCREENING,8,4,RESPIRATORY,N,,"BASELINE, ANY DAY PRIOR TO FIRST DOSE",0,2001,1,DURING/AFTER
NIDA-CTN-0002,MH,02_022290,SCREENING,29,15,SEIZURE,N,,"BASELINE, ANY DAY PRIOR TO FIRST DOSE",0,2001,1,BEFORE
NIDA-CTN-0002,MH,02_022290,SCREENING,30,15,SEIZURE,N,,"BASELINE, ANY DAY PRIOR TO FIRST DOSE",0,2001,1,DURING/AFTER
NIDA-CTN-0002,MH,02_022290,SCREENING,13,7,SYMPTOMS OF TB,N,,"BASELINE, ANY DAY PRIOR TO FIRST DOSE",0,2001,1,BEFORE
NIDA-CTN-0002,MH,02_022290,SCREENING,14,7,SYMPTOMS OF TB,N,,"BASELINE, ANY DAY PRIOR TO FIRST DOSE",0,2001,1,DURING/AFTER
NIDA-CTN-0002,MH,02_022290,SCREENING,9,5,TB SKIN TEST POSITIVE,N,,"BASELINE, ANY DAY PRIOR TO FIRST DOSE",0,2001,1,BEFORE
NIDA-CTN-0002,MH,02_022290,SCREENING,10,5,TB SKIN TEST POSITIVE,N,,"BASELINE, ANY DAY PRIOR TO FIRST DOSE",0,2001,1,DURING/AFTER
NIDA-CTN-0002,MH,02_022290,SCREENING,11,6,X-RAY POSITIVE FOR TB,N,,"BASELINE, ANY DAY PRIOR TO FIRST DOSE",0,2001,1,BEFORE
NIDA-CTN-0002,MH,02_022290,SCREENING,12,6,X-RAY POSITIVE FOR TB,N,,"BASELINE, ANY DAY PRIOR TO FIRST DOSE",0,2001,1,DURING/AFTER
NIDA-CTN-0002,MH,02_022451,SCREENING,31,16,ALLERGIES,N,,"BASELINE, ANY DAY PRIOR TO FIRST DOSE",0,2001," ",BEFORE
NIDA-CTN-0002,MH,02_022451,SCREENING,32,16,ALLERGIES,N,,"BASELINE, ANY DAY PRIOR TO FIRST DOSE",0,2001," ",DURING/AFTER
NIDA-CTN-0002,MH,02_022451,SCREENING,5,3,CARDIOVASCULAR,Y,,"BASELINE, ANY DAY PRIOR TO FIRST DOSE",0,2001," ",BEFORE
NIDA-CTN-0002,MH,02_022451,SCREENING,6,3,CARDIOVASCULAR,N,,"BASELINE, ANY DAY PRIOR TO FIRST DOSE",0,2001," ",DURING/AFTER
NIDA-CTN-0002,MH,02_022451,SCREENING,1,1,DERMATOLOGICAL,N,,"BASELINE, ANY DAY PRIOR TO FIRST DOSE",0,2001," ",BEFORE
NIDA-CTN-0002,MH,02_022451,SCREENING,2,1,DERMATOLOGICAL,N,,"BASELINE, ANY DAY PRIOR TO FIRST DOSE",0,2001," ",DURING/AFTER
NIDA-CTN-0002,MH,02_022451,SCREENING,23,12,ENDOCRINE,N,,"BASELINE, ANY DAY PRIOR TO FIRST DOSE",0,2001," ",BEFORE
NIDA-CTN-0002,MH,02_022451,SCREENING,24,12,ENDOCRINE,N,,"BASELINE, ANY DAY PRIOR TO FIRST DOSE",0,2001," ",DURING/AFTER
NIDA-CTN-0002,MH,02_022451,SCREENING,3,2,"EYES, EARS, NOSE, AND THROAT",N,,"BASELINE, ANY DAY PRIOR TO FIRST DOSE",0,2001," ",BEFORE
NIDA-CTN-0002,MH,02_022451,SCREENING,4,2,"EYES, EARS, NOSE, AND THROAT",N,,"BASELINE, ANY DAY PRIOR TO FIRST DOSE",0,2001," ",DURING/AFTER
NIDA-CTN-0002,MH,02_022451,SCREENING,17,9,GASTROINTESTINAL,Y,,"BASELINE, ANY DAY PRIOR TO FIRST DOSE",0,2001," ",BEFORE
NIDA-CTN-0002,MH,02_022451,SCREENING,18,9,GASTROINTESTINAL,Y,,"BASELINE, ANY DAY PRIOR TO FIRST DOSE",0,2001," ",DURING/AFTER
NIDA-CTN-0002,MH,02_022451,SCREENING,21,11,GENITOURINARY,N,,"BASELINE, ANY DAY PRIOR TO FIRST DOSE",0,2001," ",BEFORE
NIDA-CTN-0002,MH,02_022451,SCREENING,22,11,GENITOURINARY,N,,"BASELINE, ANY DAY PRIOR TO FIRST DOSE",0,2001," ",DURING/AFTER
NIDA-CTN-0002,MH,02_022451,SCREENING,19,10,HEPATIC,Y,,"BASELINE, ANY DAY PRIOR TO FIRST DOSE",0,2001," ",BEFORE
NIDA-CTN-0002,MH,02_022451,SCREENING,20,10,HEPATIC,N,,"BASELINE, ANY DAY PRIOR TO FIRST DOSE",0,2001," ",DURING/AFTER
NIDA-CTN-0002,MH,02_022451,SCREENING,15,8,MUSCULOSKELETAL,N,,"BASELINE, ANY DAY PRIOR TO FIRST DOSE",0,2001," ",BEFORE
NIDA-CTN-0002,MH,02_022451,SCREENING,16,8,MUSCULOSKELETAL,Y,,"BASELINE, ANY DAY PRIOR TO FIRST DOSE",0,2001," ",DURING/AFTER
NIDA-CTN-0002,MH,02_022451,SCREENING,27,14,NEUROLOGICAL,N,,"BASELINE, ANY DAY PRIOR TO FIRST DOSE",0,2001," ",BEFORE
NIDA-CTN-0002,MH,02_022451,SCREENING,28,14,NEUROLOGICAL,N,,"BASELINE, ANY DAY PRIOR TO FIRST DOSE",0,2001," ",DURING/AFTER
NIDA-CTN-0002,MH,02_022451,SCREENING,25,13,PSYCHIATRIC,Y,,"BASELINE, ANY DAY PRIOR TO FIRST DOSE",0,2001," ",BEFORE
NIDA-CTN-0002,MH,02_022451,SCREENING,26,13,PSYCHIATRIC,N,,"BASELINE, ANY DAY PRIOR TO FIRST DOSE",0,2001," ",DURING/AFTER
NIDA-CTN-0002,MH,02_022451,SCREENING,7,4,RESPIRATORY,N,,"BASELINE, ANY DAY PRIOR TO FIRST DOSE",0,2001," ",BEFORE
NIDA-CTN-0002,MH,02_022451,SCREENING,8,4,RESPIRATORY,N,,"BASELINE, ANY DAY PRIOR TO FIRST DOSE",0,2001," ",DURING/AFTER
NIDA-CTN-0002,MH,02_022451,SCREENING,29,15,SEIZURE,N,,"BASELINE, ANY DAY PRIOR TO FIRST DOSE",0,2001," ",BEFORE
NIDA-CTN-0002,MH,02_022451,SCREENING,30,15,SEIZURE,N,,"BASELINE, ANY DAY PRIOR TO FIRST DOSE",0,2001," ",DURING/AFTER
NIDA-CTN-0002,MH,02_022451,SCREENING,13,7,SYMPTOMS OF TB,N,,"BASELINE, ANY DAY PRIOR TO FIRST DOSE",0,2001," ",BEFORE
NIDA-CTN-0002,MH,02_022451,SCREENING,14,7,SYMPTOMS OF TB,N,,"BASELINE, ANY DAY PRIOR TO FIRST DOSE",0,2001," ",DURING/AFTER
NIDA-CTN-0002,MH,02_022451,SCREENING,9,5,TB SKIN TEST POSITIVE,N,,"BASELINE, ANY DAY PRIOR TO FIRST DOSE",0,2001," ",BEFORE
NIDA-CTN-0002,MH,02_022451,SCREENING,10,5,TB SKIN TEST POSITIVE,N,,"BASELINE, ANY DAY PRIOR TO FIRST DOSE",0,2001," ",DURING/AFTER
NIDA-CTN-0002,MH,02_022451,SCREENING,11,6,X-RAY POSITIVE FOR TB,N,,"BASELINE, ANY DAY PRIOR TO FIRST DOSE",0,2001," ",BEFORE
NIDA-CTN-0002,MH,02_022451,SCREENING,12,6,X-RAY POSITIVE FOR TB,N,,"BASELINE, ANY DAY PRIOR TO FIRST DOSE",0,2001," ",DURING/AFTER
NIDA-CTN-0002,MH,02_022945,SCREENING,29,16,ALLERGIES,N,,"BASELINE, ANY DAY PRIOR TO FIRST DOSE",0,2001,-2,BEFORE
NIDA-CTN-0002,MH,02_022945,SCREENING,30,16,ALLERGIES,N,,"BASELINE, ANY DAY PRIOR TO FIRST DOSE",0,2001,-2,DURING/AFTER
NIDA-CTN-0002,MH,02_022945,SCREENING,5,3,CARDIOVASCULAR,N,,"BASELINE, ANY DAY PRIOR TO FIRST DOSE",0,2001,-2,BEFORE
NIDA-CTN-0002,MH,02_022945,SCREENING,6,3,CARDIOVASCULAR,Y,,"BASELINE, ANY DAY PRIOR TO FIRST DOSE",0,2001,-2,DURING/AFTER
NIDA-CTN-0002,MH,02_022945,SCREENING,1,1,DERMATOLOGICAL,N,,"BASELINE, ANY DAY PRIOR TO FIRST DOSE",0,2001,-2,BEFORE
NIDA-CTN-0002,MH,02_022945,SCREENING,2,1,DERMATOLOGICAL,N,,"BASELINE, ANY DAY PRIOR TO FIRST DOSE",0,2001,-2,DURING/AFTER
NIDA-CTN-0002,MH,02_022945,SCREENING,21,12,ENDOCRINE,N,,"BASELINE, ANY DAY PRIOR TO FIRST DOSE",0,2001,-2,BEFORE
NIDA-CTN-0002,MH,02_022945,SCREENING,22,12,ENDOCRINE,N,,"BASELINE, ANY DAY PRIOR TO FIRST DOSE",0,2001,-2,DURING/AFTER
NIDA-CTN-0002,MH,02_022945,SCREENING,3,2,"EYES, EARS, NOSE, AND THROAT",N,,"BASELINE, ANY DAY PRIOR TO FIRST DOSE",0,2001,-2,BEFORE
NIDA-CTN-0002,MH,02_022945,SCREENING,4,2,"EYES, EARS, NOSE, AND THROAT",N,,"BASELINE, ANY DAY PRIOR TO FIRST DOSE",0,2001,-2,DURING/AFTER
NIDA-CTN-0002,MH,02_022945,SCREENING,15,9,GASTROINTESTINAL,Y,,"BASELINE, ANY DAY PRIOR TO FIRST DOSE",0,2001,-2,BEFORE
NIDA-CTN-0002,MH,02_022945,SCREENING,16,9,GASTROINTESTINAL,N,,"BASELINE, ANY DAY PRIOR TO FIRST DOSE",0,2001,-2,DURING/AFTER
NIDA-CTN-0002,MH,02_022945,SCREENING,19,11,GENITOURINARY,N,,"BASELINE, ANY DAY PRIOR TO FIRST DOSE",0,2001,-2,BEFORE
NIDA-CTN-0002,MH,02_022945,SCREENING,20,11,GENITOURINARY,N,,"BASELINE, ANY DAY PRIOR TO FIRST DOSE",0,2001,-2,DURING/AFTER
NIDA-CTN-0002,MH,02_022945,SCREENING,17,10,HEPATIC,N,,"BASELINE, ANY DAY PRIOR TO FIRST DOSE",0,2001,-2,BEFORE
NIDA-CTN-0002,MH,02_022945,SCREENING,18,10,HEPATIC,N,,"BASELINE, ANY DAY PRIOR TO FIRST DOSE",0,2001,-2,DURING/AFTER
NIDA-CTN-0002,MH,02_022945,SCREENING,13,8,MUSCULOSKELETAL,N,,"BASELINE, ANY DAY PRIOR TO FIRST DOSE",0,2001,-2,BEFORE
NIDA-CTN-0002,MH,02_022945,SCREENING,14,8,MUSCULOSKELETAL,N,,"BASELINE, ANY DAY PRIOR TO FIRST DOSE",0,2001,-2,DURING/AFTER
NIDA-CTN-0002,MH,02_022945,SCREENING,25,14,NEUROLOGICAL,N,,"BASELINE, ANY DAY PRIOR TO FIRST DOSE",0,2001,-2,BEFORE
NIDA-CTN-0002,MH,02_022945,SCREENING,26,14,NEUROLOGICAL,N,,"BASELINE, ANY DAY PRIOR TO FIRST DOSE",0,2001,-2,DURING/AFTER
NIDA-CTN-0002,MH,02_022945,SCREENING,31,17,OTHER,N,,"BASELINE, ANY DAY PRIOR TO FIRST DOSE",0,2001,-2,BEFORE
NIDA-CTN-0002,MH,02_022945,SCREENING,32,17,OTHER,N,,"BASELINE, ANY DAY PRIOR TO FIRST DOSE",0,2001,-2,DURING/AFTER
NIDA-CTN-0002,MH,02_022945,SCREENING,23,13,PSYCHIATRIC,N,,"BASELINE, ANY DAY PRIOR TO FIRST DOSE",0,2001,-2,BEFORE
NIDA-CTN-0002,MH,02_022945,SCREENING,24,13,PSYCHIATRIC,N,,"BASELINE, ANY DAY PRIOR TO FIRST DOSE",0,2001,-2,DURING/AFTER
NIDA-CTN-0002,MH,02_022945,SCREENING,7,4,RESPIRATORY,Y,,"BASELINE, ANY DAY PRIOR TO FIRST DOSE",0,2001,-2,BEFORE
NIDA-CTN-0002,MH,02_022945,SCREENING,8,4,RESPIRATORY,N,,"BASELINE, ANY DAY PRIOR TO FIRST DOSE",0,2001,-2,DURING/AFTER
NIDA-CTN-0002,MH,02_022945,SCREENING,27,15,SEIZURE,N,,"BASELINE, ANY DAY PRIOR TO FIRST DOSE",0,2001,-2,BEFORE
NIDA-CTN-0002,MH,02_022945,SCREENING,28,15,SEIZURE,N,,"BASELINE, ANY DAY PRIOR TO FIRST DOSE",0,2001,-2,DURING/AFTER
NIDA-CTN-0002,MH,02_022945,SCREENING,11,7,SYMPTOMS OF TB,N,,"BASELINE, ANY DAY PRIOR TO FIRST DOSE",0,2001,-2,BEFORE
NIDA-CTN-0002,MH,02_022945,SCREENING,12,7,SYMPTOMS OF TB,N,,"BASELINE, ANY DAY PRIOR TO FIRST DOSE",0,2001,-2,DURING/AFTER
NIDA-CTN-0002,MH,02_022945,SCREENING,9,5,TB SKIN TEST POSITIVE,,NOT DONE,"BASELINE, ANY DAY PRIOR TO FIRST DOSE",0,2001,-2,
NIDA-CTN-0002,MH,02_022945,SCREENING,10,6,X-RAY POSITIVE FOR TB,,NOT DONE,"BASELINE, ANY DAY PRIOR TO FIRST DOSE",0,2001,-2,
NIDA-CTN-0002,MH,02_023773,SCREENING,29,16,ALLERGIES,N,,"BASELINE, ANY DAY PRIOR TO FIRST DOSE",0,2001," ",BEFORE
NIDA-CTN-0002,MH,02_023773,SCREENING,30,16,ALLERGIES,N,,"BASELINE, ANY DAY PRIOR TO FIRST DOSE",0,2001," ",DURING/AFTER
NIDA-CTN-0002,MH,02_023773,SCREENING,5,3,CARDIOVASCULAR,N,,"BASELINE, ANY DAY PRIOR TO FIRST DOSE",0,2001," ",BEFORE
NIDA-CTN-0002,MH,02_023773,SCREENING,6,3,CARDIOVASCULAR,N,,"BASELINE, ANY DAY PRIOR TO FIRST DOSE",0,2001," ",DURING/AFTER
NIDA-CTN-0002,MH,02_023773,SCREENING,1,1,DERMATOLOGICAL,N,,"BASELINE, ANY DAY PRIOR TO FIRST DOSE",0,2001," ",BEFORE
NIDA-CTN-0002,MH,02_023773,SCREENING,2,1,DERMATOLOGICAL,N,,"BASELINE, ANY DAY PRIOR TO FIRST DOSE",0,2001," ",DURING/AFTER
NIDA-CTN-0002,MH,02_023773,SCREENING,21,12,ENDOCRINE,N,,"BASELINE, ANY DAY PRIOR TO FIRST DOSE",0,2001," ",BEFORE
NIDA-CTN-0002,MH,02_023773,SCREENING,22,12,ENDOCRINE,N,,"BASELINE, ANY DAY PRIOR TO FIRST DOSE",0,2001," ",DURING/AFTER
NIDA-CTN-0002,MH,02_023773,SCREENING,3,2,"EYES, EARS, NOSE, AND THROAT",N,,"BASELINE, ANY DAY PRIOR TO FIRST DOSE",0,2001," ",BEFORE
NIDA-CTN-0002,MH,02_023773,SCREENING,4,2,"EYES, EARS, NOSE, AND THROAT",N,,"BASELINE, ANY DAY PRIOR TO FIRST DOSE",0,2001," ",DURING/AFTER
NIDA-CTN-0002,MH,02_023773,SCREENING,15,9,GASTROINTESTINAL,Y,,"BASELINE, ANY DAY PRIOR TO FIRST DOSE",0,2001," ",BEFORE
NIDA-CTN-0002,MH,02_023773,SCREENING,16,9,GASTROINTESTINAL,N,,"BASELINE, ANY DAY PRIOR TO FIRST DOSE",0,2001," ",DURING/AFTER
NIDA-CTN-0002,MH,02_023773,SCREENING,19,11,GENITOURINARY,N,,"BASELINE, ANY DAY PRIOR TO FIRST DOSE",0,2001," ",BEFORE
NIDA-CTN-0002,MH,02_023773,SCREENING,20,11,GENITOURINARY,N,,"BASELINE, ANY DAY PRIOR TO FIRST DOSE",0,2001," ",DURING/AFTER
NIDA-CTN-0002,MH,02_023773,SCREENING,17,10,HEPATIC,N,,"BASELINE, ANY DAY PRIOR TO FIRST DOSE",0,2001," ",BEFORE
NIDA-CTN-0002,MH,02_023773,SCREENING,18,10,HEPATIC,N,,"BASELINE, ANY DAY PRIOR TO FIRST DOSE",0,2001," ",DURING/AFTER
NIDA-CTN-0002,MH,02_023773,SCREENING,13,8,MUSCULOSKELETAL,N,,"BASELINE, ANY DAY PRIOR TO FIRST DOSE",0,2001," ",BEFORE
NIDA-CTN-0002,MH,02_023773,SCREENING,14,8,MUSCULOSKELETAL,N,,"BASELINE, ANY DAY PRIOR TO FIRST DOSE",0,2001," ",DURING/AFTER
NIDA-CTN-0002,MH,02_023773,SCREENING,25,14,NEUROLOGICAL,N,,"BASELINE, ANY DAY PRIOR TO FIRST DOSE",0,2001," ",BEFORE
NIDA-CTN-0002,MH,02_023773,SCREENING,26,14,NEUROLOGICAL,N,,"BASELINE, ANY DAY PRIOR TO FIRST DOSE",0,2001," ",DURING/AFTER
NIDA-CTN-0002,MH,02_023773,SCREENING,31,17,OTHER,N,,"BASELINE, ANY DAY PRIOR TO FIRST DOSE",0,2001," ",BEFORE
NIDA-CTN-0002,MH,02_023773,SCREENING,32,17,OTHER,N,,"BASELINE, ANY DAY PRIOR TO FIRST DOSE",0,2001," ",DURING/AFTER
NIDA-CTN-0002,MH,02_023773,SCREENING,23,13,PSYCHIATRIC,N,,"BASELINE, ANY DAY PRIOR TO FIRST DOSE",0,2001," ",BEFORE
NIDA-CTN-0002,MH,02_023773,SCREENING,24,13,PSYCHIATRIC,N,,"BASELINE, ANY DAY PRIOR TO FIRST DOSE",0,2001," ",DURING/AFTER
NIDA-CTN-0002,MH,02_023773,SCREENING,7,4,RESPIRATORY,N,,"BASELINE, ANY DAY PRIOR TO FIRST DOSE",0,2001," ",BEFORE
NIDA-CTN-0002,MH,02_023773,SCREENING,8,4,RESPIRATORY,N,,"BASELINE, ANY DAY PRIOR TO FIRST DOSE",0,2001," ",DURING/AFTER
NIDA-CTN-0002,MH,02_023773,SCREENING,27,15,SEIZURE,N,,"BASELINE, ANY DAY PRIOR TO FIRST DOSE",0,2001," ",BEFORE
NIDA-CTN-0002,MH,02_023773,SCREENING,28,15,SEIZURE,N,,"BASELINE, ANY DAY PRIOR TO FIRST DOSE",0,2001," ",DURING/AFTER
NIDA-CTN-0002,MH,02_023773,SCREENING,11,7,SYMPTOMS OF TB,N,,"BASELINE, ANY DAY PRIOR TO FIRST DOSE",0,2001," ",BEFORE
NIDA-CTN-0002,MH,02_023773,SCREENING,12,7,SYMPTOMS OF TB,N,,"BASELINE, ANY DAY PRIOR TO FIRST DOSE",0,2001," ",DURING/AFTER
NIDA-CTN-0002,MH,02_023773,SCREENING,9,5,TB SKIN TEST POSITIVE,,NOT DONE,"BASELINE, ANY DAY PRIOR TO FIRST DOSE",0,2001," ",
NIDA-CTN-0002,MH,02_023773,SCREENING,10,6,X-RAY POSITIVE FOR TB,,NOT DONE,"BASELINE, ANY DAY PRIOR TO FIRST DOSE",0,2001," ",
NIDA-CTN-0002,MH,02_023802,SCREENING,31,16,ALLERGIES,N,,"BASELINE, ANY DAY PRIOR TO FIRST DOSE",0,2001,1,BEFORE
NIDA-CTN-0002,MH,02_023802,SCREENING,32,16,ALLERGIES,N,,"BASELINE, ANY DAY PRIOR TO FIRST DOSE",0,2001,1,DURING/AFTER
NIDA-CTN-0002,MH,02_023802,SCREENING,5,3,CARDIOVASCULAR,N,,"BASELINE, ANY DAY PRIOR TO FIRST DOSE",0,2001,1,BEFORE
NIDA-CTN-0002,MH,02_023802,SCREENING,6,3,CARDIOVASCULAR,N,,"BASELINE, ANY DAY PRIOR TO FIRST DOSE",0,2001,1,DURING/AFTER
NIDA-CTN-0002,MH,02_023802,SCREENING,1,1,DERMATOLOGICAL,N,,"BASELINE, ANY DAY PRIOR TO FIRST DOSE",0,2001,1,BEFORE
NIDA-CTN-0002,MH,02_023802,SCREENING,2,1,DERMATOLOGICAL,N,,"BASELINE, ANY DAY PRIOR TO FIRST DOSE",0,2001,1,DURING/AFTER
NIDA-CTN-0002,MH,02_023802,SCREENING,23,12,ENDOCRINE,N,,"BASELINE, ANY DAY PRIOR TO FIRST DOSE",0,2001,1,BEFORE
NIDA-CTN-0002,MH,02_023802,SCREENING,24,12,ENDOCRINE,N,,"BASELINE, ANY DAY PRIOR TO FIRST DOSE",0,2001,1,DURING/AFTER
NIDA-CTN-0002,MH,02_023802,SCREENING,3,2,"EYES, EARS, NOSE, AND THROAT",N,,"BASELINE, ANY DAY PRIOR TO FIRST DOSE",0,2001,1,BEFORE
NIDA-CTN-0002,MH,02_023802,SCREENING,4,2,"EYES, EARS, NOSE, AND THROAT",N,,"BASELINE, ANY DAY PRIOR TO FIRST DOSE",0,2001,1,DURING/AFTER
NIDA-CTN-0002,MH,02_023802,SCREENING,17,9,GASTROINTESTINAL,N,,"BASELINE, ANY DAY PRIOR TO FIRST DOSE",0,2001,1,BEFORE
NIDA-CTN-0002,MH,02_023802,SCREENING,18,9,GASTROINTESTINAL,N,,"BASELINE, ANY DAY PRIOR TO FIRST DOSE",0,2001,1,DURING/AFTER
NIDA-CTN-0002,MH,02_023802,SCREENING,21,11,GENITOURINARY,N,,"BASELINE, ANY DAY PRIOR TO FIRST DOSE",0,2001,1,BEFORE
NIDA-CTN-0002,MH,02_023802,SCREENING,22,11,GENITOURINARY,N,,"BASELINE, ANY DAY PRIOR TO FIRST DOSE",0,2001,1,DURING/AFTER
NIDA-CTN-0002,MH,02_023802,SCREENING,19,10,HEPATIC,N,,"BASELINE, ANY DAY PRIOR TO FIRST DOSE",0,2001,1,BEFORE
NIDA-CTN-0002,MH,02_023802,SCREENING,20,10,HEPATIC,N,,"BASELINE, ANY DAY PRIOR TO FIRST DOSE",0,2001,1,DURING/AFTER
NIDA-CTN-0002,MH,02_023802,SCREENING,15,8,MUSCULOSKELETAL,N,,"BASELINE, ANY DAY PRIOR TO FIRST DOSE",0,2001,1,BEFORE
NIDA-CTN-0002,MH,02_023802,SCREENING,16,8,MUSCULOSKELETAL,N,,"BASELINE, ANY DAY PRIOR TO FIRST DOSE",0,2001,1,DURING/AFTER
NIDA-CTN-0002,MH,02_023802,SCREENING,27,14,NEUROLOGICAL,N,,"BASELINE, ANY DAY PRIOR TO FIRST DOSE",0,2001,1,BEFORE
NIDA-CTN-0002,MH,02_023802,SCREENING,28,14,NEUROLOGICAL,N,,"BASELINE, ANY DAY PRIOR TO FIRST DOSE",0,2001,1,DURING/AFTER
NIDA-CTN-0002,MH,02_023802,SCREENING,25,13,PSYCHIATRIC,N,,"BASELINE, ANY DAY PRIOR TO FIRST DOSE",0,2001,1,BEFORE
NIDA-CTN-0002,MH,02_023802,SCREENING,26,13,PSYCHIATRIC,N,,"BASELINE, ANY DAY PRIOR TO FIRST DOSE",0,2001,1,DURING/AFTER
NIDA-CTN-0002,MH,02_023802,SCREENING,7,4,RESPIRATORY,N,,"BASELINE, ANY DAY PRIOR TO FIRST DOSE",0,2001,1,BEFORE
NIDA-CTN-0002,MH,02_023802,SCREENING,8,4,RESPIRATORY,N,,"BASELINE, ANY DAY PRIOR TO FIRST DOSE",0,2001,1,DURING/AFTER
NIDA-CTN-0002,MH,02_023802,SCREENING,29,15,SEIZURE,N,,"BASELINE, ANY DAY PRIOR TO FIRST DOSE",0,2001,1,BEFORE
NIDA-CTN-0002,MH,02_023802,SCREENING,30,15,SEIZURE,N,,"BASELINE, ANY DAY PRIOR TO FIRST DOSE",0,2001,1,DURING/AFTER
NIDA-CTN-0002,MH,02_023802,SCREENING,13,7,SYMPTOMS OF TB,N,,"BASELINE, ANY DAY PRIOR TO FIRST DOSE",0,2001,1,BEFORE
NIDA-CTN-0002,MH,02_023802,SCREENING,14,7,SYMPTOMS OF TB,N,,"BASELINE, ANY DAY PRIOR TO FIRST DOSE",0,2001,1,DURING/AFTER
NIDA-CTN-0002,MH,02_023802,SCREENING,9,5,TB SKIN TEST POSITIVE,N,,"BASELINE, ANY DAY PRIOR TO FIRST DOSE",0,2001,1,BEFORE
NIDA-CTN-0002,MH,02_023802,SCREENING,10,5,TB SKIN TEST POSITIVE,N,,"BASELINE, ANY DAY PRIOR TO FIRST DOSE",0,2001,1,DURING/AFTER
NIDA-CTN-0002,MH,02_023802,SCREENING,11,6,X-RAY POSITIVE FOR TB,N,,"BASELINE, ANY DAY PRIOR TO FIRST DOSE",0,2001,1,BEFORE
NIDA-CTN-0002,MH,02_023802,SCREENING,12,6,X-RAY POSITIVE FOR TB,N,,"BASELINE, ANY DAY PRIOR TO FIRST DOSE",0,2001,1,DURING/AFTER
NIDA-CTN-0002,MH,02_023926,SCREENING,31,16,ALLERGIES,Y,,"BASELINE, ANY DAY PRIOR TO FIRST DOSE",0,2001,-1,BEFORE
NIDA-CTN-0002,MH,02_023926,SCREENING,32,16,ALLERGIES,N,,"BASELINE, ANY DAY PRIOR TO FIRST DOSE",0,2001,-1,DURING/AFTER
NIDA-CTN-0002,MH,02_023926,SCREENING,5,3,CARDIOVASCULAR,N,,"BASELINE, ANY DAY PRIOR TO FIRST DOSE",0,2001,-1,BEFORE
NIDA-CTN-0002,MH,02_023926,SCREENING,6,3,CARDIOVASCULAR,N,,"BASELINE, ANY DAY PRIOR TO FIRST DOSE",0,2001,-1,DURING/AFTER
NIDA-CTN-0002,MH,02_023926,SCREENING,1,1,DERMATOLOGICAL,Y,,"BASELINE, ANY DAY PRIOR TO FIRST DOSE",0,2001,-1,BEFORE
NIDA-CTN-0002,MH,02_023926,SCREENING,2,1,DERMATOLOGICAL,Y,,"BASELINE, ANY DAY PRIOR TO FIRST DOSE",0,2001,-1,DURING/AFTER
NIDA-CTN-0002,MH,02_023926,SCREENING,23,12,ENDOCRINE,N,,"BASELINE, ANY DAY PRIOR TO FIRST DOSE",0,2001,-1,BEFORE
NIDA-CTN-0002,MH,02_023926,SCREENING,24,12,ENDOCRINE,N,,"BASELINE, ANY DAY PRIOR TO FIRST DOSE",0,2001,-1,DURING/AFTER
NIDA-CTN-0002,MH,02_023926,SCREENING,3,2,"EYES, EARS, NOSE, AND THROAT",Y,,"BASELINE, ANY DAY PRIOR TO FIRST DOSE",0,2001,-1,BEFORE
NIDA-CTN-0002,MH,02_023926,SCREENING,4,2,"EYES, EARS, NOSE, AND THROAT",Y,,"BASELINE, ANY DAY PRIOR TO FIRST DOSE",0,2001,-1,DURING/AFTER
NIDA-CTN-0002,MH,02_023926,SCREENING,17,9,GASTROINTESTINAL,Y,,"BASELINE, ANY DAY PRIOR TO FIRST DOSE",0,2001,-1,BEFORE
NIDA-CTN-0002,MH,02_023926,SCREENING,18,9,GASTROINTESTINAL,Y,,"BASELINE, ANY DAY PRIOR TO FIRST DOSE",0,2001,-1,DURING/AFTER
NIDA-CTN-0002,MH,02_023926,SCREENING,21,11,GENITOURINARY,N,,"BASELINE, ANY DAY PRIOR TO FIRST DOSE",0,2001,-1,BEFORE
NIDA-CTN-0002,MH,02_023926,SCREENING,22,11,GENITOURINARY,N,,"BASELINE, ANY DAY PRIOR TO FIRST DOSE",0,2001,-1,DURING/AFTER
NIDA-CTN-0002,MH,02_023926,SCREENING,19,10,HEPATIC,N,,"BASELINE, ANY DAY PRIOR TO FIRST DOSE",0,2001,-1,BEFORE
NIDA-CTN-0002,MH,02_023926,SCREENING,20,10,HEPATIC,N,,"BASELINE, ANY DAY PRIOR TO FIRST DOSE",0,2001,-1,DURING/AFTER
NIDA-CTN-0002,MH,02_023926,SCREENING,15,8,MUSCULOSKELETAL,N,,"BASELINE, ANY DAY PRIOR TO FIRST DOSE",0,2001,-1,BEFORE
NIDA-CTN-0002,MH,02_023926,SCREENING,16,8,MUSCULOSKELETAL,N,,"BASELINE, ANY DAY PRIOR TO FIRST DOSE",0,2001,-1,DURING/AFTER
NIDA-CTN-0002,MH,02_023926,SCREENING,27,14,NEUROLOGICAL,N,,"BASELINE, ANY DAY PRIOR TO FIRST DOSE",0,2001,-1,BEFORE
NIDA-CTN-0002,MH,02_023926,SCREENING,28,14,NEUROLOGICAL,N,,"BASELINE, ANY DAY PRIOR TO FIRST DOSE",0,2001,-1,DURING/AFTER
NIDA-CTN-0002,MH,02_023926,SCREENING,33,17,OTHER,N,,"BASELINE, ANY DAY PRIOR TO FIRST DOSE",0,2001,-1,BEFORE
NIDA-CTN-0002,MH,02_023926,SCREENING,34,17,OTHER,N,,"BASELINE, ANY DAY PRIOR TO FIRST DOSE",0,2001,-1,DURING/AFTER
NIDA-CTN-0002,MH,02_023926,SCREENING,25,13,PSYCHIATRIC,Y,,"BASELINE, ANY DAY PRIOR TO FIRST DOSE",0,2001,-1,BEFORE
NIDA-CTN-0002,MH,02_023926,SCREENING,26,13,PSYCHIATRIC,Y,,"BASELINE, ANY DAY PRIOR TO FIRST DOSE",0,2001,-1,DURING/AFTER
