STUDYID,DOMAIN,USUBJID,EPOCH,VSSEQ,VSTESTCD,VSTEST,VSCAT,VSPOS,VSORRES,VSORRESU,VSSTRESC,VSSTRESN,VSSTRESU,VSBLFL,VISIT,VISITNUM,VSDTC,VSDY
NIDA-CTN-0002,VS,02_000549,SCREENING,3,DBP,DIASTOLIC BLOOD PRESSURE,VITAL SIGNS FORM,SITTING,080,MMHG,080,80,MMHG,Y,"BASELINE, ANY DAY PRIOR TO FIRST DOSE",0,2001,-8
NIDA-CTN-0002,VS,02_000549,ACTIVE,11,DBP,DIASTOLIC BLOOD PRESSURE,VITAL SIGNS FORM,SITTING,078,MMHG,078,78,MMHG,,STUDY DAY 1,1,2001,1
NIDA-CTN-0002,VS,02_000549,ACTIVE,17,DBP,DIASTOLIC BLOOD PRESSURE,VITAL SIGNS FORM,SITTING,074,MMHG,074,74,MMHG,,STUDY DAY 2,2,2001,2
NIDA-CTN-0002,VS,02_000549,ACTIVE,23,,DIASTOLIC BLOOD PRESSURE,VITAL SIGNS FORM,SITTING,074,MMHG,074,74,MMHG,,STUDY DAY 3,3,2001,3
NIDA-CTN-0002,VS,02_000549,ACTIVE,29,DBP,DIASTOLIC BLOOD PRESSURE,VITAL SIGNS FORM,SITTING,070,MMHG,070,70,MMHG,,STUDY DAY 4,4,2001,4
NIDA-CTN-0002,VS,02_000549,ACTIVE,35,DBP,DIASTOLIC BLOOD PRESSURE,VITAL SIGNS FORM,SITTING,066,MMHG,066,66,MMHG,,STUDY DAY 7,7,2001,7
NIDA-CTN-0002,VS,02_000549,ACTIVE,41,DBP,DIASTOLIC BLOOD PRESSURE,VITAL SIGNS FORM,SITTING,074,MMHG,074,74,MMHG,,STUDY DAY 8,8,2001,8
NIDA-CTN-0002,VS,02_000549,ACTIVE,47,DBP,DIASTOLIC BLOOD PRESSURE,VITAL SIGNS FORM,SITTING,084,MMHG,084,84,MMHG,,STUDY DAY 10,10,2001,10
NIDA-CTN-0002,VS,02_000549,ACTIVE,53,DBP,DIASTOLIC BLOOD PRESSURE,VITAL SIGNS FORM,SITTING,078,MMHG,078,78,MMHG,,STUDY DAY 11,11,2001,11
NIDA-CTN-0002,VS,02_000549,ACTIVE,59,DBP,DIASTOLIC BLOOD PRESSURE,VITAL SIGNS FORM,SITTING,086,MMHG,086,86,MMHG,,STUDY DAY 14,14,2001,14
NIDA-CTN-0002,VS,02_000549,SCREENING,7,HEIGHT,HEIGHT,PHYSICAL EXAMINATION FORM,,66,INCHES,66,66,INCHES,Y,"BASELINE, ANY DAY PRIOR TO FIRST DOSE",0,2001,1
NIDA-CTN-0002,VS,02_000549,SCREENING,4,PULSE,PULSE,VITAL SIGNS FORM,SITTING,80,BEATS/MINUTE,80,80,BEATS/MINUTE,Y,"BASELINE, ANY DAY PRIOR TO FIRST DOSE",0,2001,-8
NIDA-CTN-0002,VS,02_000549,SCREENING,6,PULSE,PULSE,CLINICAL OPIATE WITHDRAWAL SCALE FORM,SITTING,80,BEATS/MINUTE,80,80,BEATS/MINUTE,Y,"BASELINE, ANY DAY PRIOR TO FIRST DOSE",0,2001,-8
NIDA-CTN-0002,VS,02_000549,ACTIVE,12,PULSE,PULSE,VITAL SIGNS FORM,SITTING,100,BEATS/MINUTE,100,100,BEATS/MINUTE,,STUDY DAY 1,1,2001,1
NIDA-CTN-0002,VS,02_000549,ACTIVE,14,PULSE,PULSE,CLINICAL OPIATE WITHDRAWAL SCALE FORM,SITTING,100,BEATS/MINUTE,100,100,BEATS/MINUTE,,STUDY DAY 1,1,2001,1
NIDA-CTN-0002,VS,02_000549,ACTIVE,18,PULSE,PULSE,VITAL SIGNS FORM,SITTING,92,BEATS/MINUTE,92,92,BEATS/MINUTE,,STUDY DAY 2,2,2001,2
NIDA-CTN-0002,VS,02_000549,ACTIVE,20,PULSE,PULSE,CLINICAL OPIATE WITHDRAWAL SCALE FORM,SITTING,92,BEATS/MINUTE,92,92,BEATS/MINUTE,,STUDY DAY 2,2,2001,2
NIDA-CTN-0002,VS,02_000549,ACTIVE,24,PULSE,PULSE,VITAL SIGNS FORM,SITTING,88,BEATS/MINUTE,88,88,BEATS/MINUTE,,STUDY DAY 3,3,2001,3
NIDA-CTN-0002,VS,02_000549,ACTIVE,26,PULSE,PULSE,CLINICAL OPIATE WITHDRAWAL SCALE FORM,SITTING,88,BEATS/MINUTE,88,88,BEATS/MINUTE,,STUDY DAY 3,3,2001,3
NIDA-CTN-0002,VS,02_000549,ACTIVE,30,PULSE,PULSE,VITAL SIGNS FORM,SITTING,100,BEATS/MINUTE,100,100,BEATS/MINUTE,,STUDY DAY 4,4,2001,4
NIDA-CTN-0002,VS,02_000549,ACTIVE,32,PULSE,PULSE,CLINICAL OPIATE WITHDRAWAL SCALE FORM,SITTING,100,BEATS/MINUTE,100,100,BEATS/MINUTE,,STUDY DAY 4,4,2001,4
NIDA-CTN-0002,VS,02_000549,ACTIVE,36,PULSE,PULSE,VITAL SIGNS FORM,SITTING,104,BEATS/MINUTE,104,104,BEATS/MINUTE,,STUDY DAY 7,7,2001,7
NIDA-CTN-0002,VS,02_000549,ACTIVE,38,PULSE,PULSE,CLINICAL OPIATE WITHDRAWAL SCALE FORM,SITTING,104,BEATS/MINUTE,104,104,BEATS/MINUTE,,STUDY DAY 7,7,2001,7
NIDA-CTN-0002,VS,02_000549,ACTIVE,42,PULSE,PULSE,VITAL SIGNS FORM,SITTING,108,BEATS/MINUTE,108,108,BEATS/MINUTE,,STUDY DAY 8,8,2001,8
NIDA-CTN-0002,VS,02_000549,ACTIVE,44,PULSE,PULSE,CLINICAL OPIATE WITHDRAWAL SCALE FORM,SITTING,108,BEATS/MINUTE,108,108,BEATS/MINUTE,,STUDY DAY 8,8,2001,8
NIDA-CTN-0002,VS,02_000549,ACTIVE,48,PULSE,PULSE,VITAL SIGNS FORM,SITTING,120,BEATS/MINUTE,120,120,BEATS/MINUTE,,STUDY DAY 10,10,2001,10
NIDA-CTN-0002,VS,02_000549,ACTIVE,50,PULSE,PULSE,CLINICAL OPIATE WITHDRAWAL SCALE FORM,SITTING,120,BEATS/MINUTE,120,120,BEATS/MINUTE,,STUDY DAY 10,10,2001,10
NIDA-CTN-0002,VS,02_000549,ACTIVE,54,PULSE,PULSE,VITAL SIGNS FORM,SITTING,83,BEATS/MINUTE,83,83,BEATS/MINUTE,,STUDY DAY 11,11,2001,11
NIDA-CTN-0002,VS,02_000549,ACTIVE,56,PULSE,PULSE,CLINICAL OPIATE WITHDRAWAL SCALE FORM,SITTING,88,BEATS/MINUTE,88,88,BEATS/MINUTE,,STUDY DAY 11,11,2001,11
NIDA-CTN-0002,VS,02_000549,ACTIVE,60,PULSE,PULSE,VITAL SIGNS FORM,SITTING,84,BEATS/MINUTE,84,84,BEATS/MINUTE,,STUDY DAY 14,14,2001,14
NIDA-CTN-0002,VS,02_000549,ACTIVE,62,PULSE,PULSE,CLINICAL OPIATE WITHDRAWAL SCALE FORM,SITTING,84,BEATS/MINUTE,84,84,BEATS/MINUTE,,STUDY DAY 14,14,2001,14
NIDA-CTN-0002,VS,02_000549,FOLLOW-UP 1,63,PULSE,PULSE,CLINICAL OPIATE WITHDRAWAL SCALE FORM,SITTING,96,BEATS/MINUTE,96,96,BEATS/MINUTE,,FOLLOW-UP 1,15,2001,56
NIDA-CTN-0002,VS,02_000549,SCREENING,5,RESP,RESPIRATIONS,VITAL SIGNS FORM,SITTING,16,BREATHS/MIN,16,16,BREATHS/MIN,Y,"BASELINE, ANY DAY PRIOR TO FIRST DOSE",0,2001,-8
NIDA-CTN-0002,VS,02_000549,ACTIVE,13,RESP,RESPIRATIONS,VITAL SIGNS FORM,SITTING,16,BREATHS/MIN,16,16,BREATHS/MIN,,STUDY DAY 1,1,2001,1
NIDA-CTN-0002,VS,02_000549,ACTIVE,19,RESP,RESPIRATIONS,VITAL SIGNS FORM,SITTING,16,BREATHS/MIN,16,16,BREATHS/MIN,,STUDY DAY 2,2,2001,2
NIDA-CTN-0002,VS,02_000549,ACTIVE,25,RESP,RESPIRATIONS,VITAL SIGNS FORM,SITTING,16,BREATHS/MIN,16,16,BREATHS/MIN,,STUDY DAY 3,3,2001,3
NIDA-CTN-0002,VS,02_000549,ACTIVE,31,RESP,RESPIRATIONS,VITAL SIGNS FORM,SITTING,16,BREATHS/MIN,16,16,BREATHS/MIN,,STUDY DAY 4,4,2001,4
NIDA-CTN-0002,VS,02_000549,ACTIVE,37,RESP,RESPIRATIONS,VITAL SIGNS FORM,SITTING,12,BREATHS/MIN,12,12,BREATHS/MIN,,STUDY DAY 7,7,2001,7
NIDA-CTN-0002,VS,02_000549,ACTIVE,43,RESP,RESPIRATIONS,VITAL SIGNS FORM,SITTING,12,BREATHS/MIN,12,12,BREATHS/MIN,,STUDY DAY 8,8,2001,8
NIDA-CTN-0002,VS,02_000549,ACTIVE,49,RESP,RESPIRATIONS,VITAL SIGNS FORM,SITTING,12,BREATHS/MIN,12,12,BREATHS/MIN,,STUDY DAY 10,10,2001,10
NIDA-CTN-0002,VS,02_000549,ACTIVE,55,RESP,RESPIRATIONS,VITAL SIGNS FORM,SITTING,12,BREATHS/MIN,12,12,BREATHS/MIN,,STUDY DAY 11,11,2001,11
NIDA-CTN-0002,VS,02_000549,ACTIVE,61,RESP,RESPIRATIONS,VITAL SIGNS FORM,SITTING,12,BREATHS/MIN,12,12,BREATHS/MIN,,STUDY DAY 14,14,2001,14
NIDA-CTN-0002,VS,02_000549,SCREENING,2,SBP,SYSTOLIC BLOOD PRESSURE,VITAL SIGNS FORM,SITTING,112,MMHG,112,112,MMHG,Y,"BASELINE, ANY DAY PRIOR TO FIRST DOSE",0,2001,-8
NIDA-CTN-0002,VS,02_000549,ACTIVE,10,SBP,SYSTOLIC BLOOD PRESSURE,VITAL SIGNS FORM,SITTING,120,MMHG,120,120,MMHG,,STUDY DAY 1,1,2001,1
NIDA-CTN-0002,VS,02_000549,ACTIVE,16,SBP,SYSTOLIC BLOOD PRESSURE,VITAL SIGNS FORM,SITTING,120,MMHG,120,120,MMHG,,STUDY DAY 2,2,2001,2
NIDA-CTN-0002,VS,02_000549,ACTIVE,22,SBP,SYSTOLIC BLOOD PRESSURE,VITAL SIGNS FORM,SITTING,110,MMHG,110,110,MMHG,,STUDY DAY 3,3,2001,3
NIDA-CTN-0002,VS,02_000549,ACTIVE,28,SBP,SYSTOLIC BLOOD PRESSURE,VITAL SIGNS FORM,SITTING,118,MMHG,118,118,MMHG,,STUDY DAY 4,4,2001,4
NIDA-CTN-0002,VS,02_000549,ACTIVE,34,SBP,SYSTOLIC BLOOD PRESSURE,VITAL SIGNS FORM,SITTING,110,MMHG,110,110,MMHG,,STUDY DAY 7,7,2001,7
NIDA-CTN-0002,VS,02_000549,ACTIVE,40,SBP,SYSTOLIC BLOOD PRESSURE,VITAL SIGNS FORM,SITTING,124,MMHG,124,124,MMHG,,STUDY DAY 8,8,2001,8
NIDA-CTN-0002,VS,02_000549,ACTIVE,46,SBP,SYSTOLIC BLOOD PRESSURE,VITAL SIGNS FORM,SITTING,116,MMHG,116,116,MMHG,,STUDY DAY 10,10,2001,10
NIDA-CTN-0002,VS,02_000549,ACTIVE,52,SBP,SYSTOLIC BLOOD PRESSURE,VITAL SIGNS FORM,SITTING,110,MMHG,110,110,MMHG,,STUDY DAY 11,11,2001,11
NIDA-CTN-0002,VS,02_000549,ACTIVE,58,SBP,SYSTOLIC BLOOD PRESSURE,VITAL SIGNS FORM,SITTING,120,MMHG,120,120,MMHG,,STUDY DAY 14,14,2001,14
NIDA-CTN-0002,VS,02_000549,SCREENING,1,TEMP,TEMPERATURE,VITAL SIGNS FORM,SITTING,999.9,F,999.9,999.9,F,Y,"BASELINE, ANY DAY PRIOR TO FIRST DOSE",0,2001,-8
NIDA-CTN-0002,VS,02_000549,ACTIVE,9,TEMP,TEMPERATURE,VITAL SIGNS FORM,SITTING,98.0,F,98.0,98,F,,STUDY DAY 1,1,2001,1
NIDA-CTN-0002,VS,02_000549,ACTIVE,15,TEMP,TEMPERATURE,VITAL SIGNS FORM,SITTING,97.0,F,97.0,97,F,,STUDY DAY 2,2,2001,2
NIDA-CTN-0002,VS,02_000549,ACTIVE,21,TEMP,TEMPERATURE,VITAL SIGNS FORM,SITTING,98.0,F,98.0,98,F,,STUDY DAY 3,3,2001,3
NIDA-CTN-0002,VS,02_000549,ACTIVE,27,TEMP,TEMPERATURE,VITAL SIGNS FORM,SITTING,98.0,F,98.0,98,F,,STUDY DAY 4,4,2001,4
NIDA-CTN-0002,VS,02_000549,ACTIVE,33,TEMP,TEMPERATURE,VITAL SIGNS FORM,SITTING,98.0,F,98.0,98,F,,STUDY DAY 7,7,2001,7
NIDA-CTN-0002,VS,02_000549,ACTIVE,39,TEMP,TEMPERATURE,VITAL SIGNS FORM,SITTING,97.0,F,97.0,97,F,,STUDY DAY 8,8,2001,8
NIDA-CTN-0002,VS,02_000549,ACTIVE,45,TEMP,TEMPERATURE,VITAL SIGNS FORM,SITTING,98.0,F,98.0,98,F,,STUDY DAY 10,10,2001,10
NIDA-CTN-0002,VS,02_000549,ACTIVE,51,TEMP,TEMPERATURE,VITAL SIGNS FORM,SITTING,97.0,F,97.0,97,F,,STUDY DAY 11,11,2001,11
NIDA-CTN-0002,VS,02_000549,ACTIVE,57,TEMP,TEMPERATURE,VITAL SIGNS FORM,SITTING,98.0,F,98.0,98,F,,STUDY DAY 14,14,2001,14
NIDA-CTN-0002,VS,02_000549,SCREENING,8,WEIGHT,WEIGHT,PHYSICAL EXAMINATION FORM,,125,POUNDS,125,125,POUNDS,Y,"BASELINE, ANY DAY PRIOR TO FIRST DOSE",0,2001,1
NIDA-CTN-0002,VS,02_000852,SCREENING,3,DBP,DIASTOLIC BLOOD PRESSURE,VITAL SIGNS FORM,SITTING,080,MMHG,080,80,MMHG,Y,"BASELINE, ANY DAY PRIOR TO FIRST DOSE",0,2002,1
NIDA-CTN-0002,VS,02_000852,ACTIVE,11,DBP,DIASTOLIC BLOOD PRESSURE,VITAL SIGNS FORM,SITTING,093,MMHG,093,93,MMHG,,STUDY DAY 1,1,2001,-365
NIDA-CTN-0002,VS,02_000852,ACTIVE,17,DBP,DIASTOLIC BLOOD PRESSURE,VITAL SIGNS FORM,SITTING,073,MMHG,073,73,MMHG,,STUDY DAY 2,2,2002,2
NIDA-CTN-0002,VS,02_000852,ACTIVE,23,DBP,DIASTOLIC BLOOD PRESSURE,VITAL SIGNS FORM,SITTING,081,MMHG,081,81,MMHG,,STUDY DAY 3,3,2002,3
NIDA-CTN-0002,VS,02_000852,ACTIVE,29,DBP,DIASTOLIC BLOOD PRESSURE,VITAL SIGNS FORM,SITTING,082,MMHG,082,82,MMHG,,STUDY DAY 6,6,2002,6
NIDA-CTN-0002,VS,02_000852,ACTIVE,35,DBP,DIASTOLIC BLOOD PRESSURE,VITAL SIGNS FORM,SITTING,078,MMHG,078,78,MMHG,,STUDY DAY 7,7,2002,7
NIDA-CTN-0002,VS,02_000852,ACTIVE,41,DBP,DIASTOLIC BLOOD PRESSURE,VITAL SIGNS FORM,SITTING,075,MMHG,075,75,MMHG,,STUDY DAY 8,8,2002,8
NIDA-CTN-0002,VS,02_000852,ACTIVE,47,DBP,DIASTOLIC BLOOD PRESSURE,VITAL SIGNS FORM,SITTING,082,MMHG,082,82,MMHG,,STUDY DAY 9,9,2002,9
NIDA-CTN-0002,VS,02_000852,ACTIVE,53,DBP,DIASTOLIC BLOOD PRESSURE,VITAL SIGNS FORM,SITTING,086,MMHG,086,86,MMHG,,STUDY DAY 10,10,2002,10
NIDA-CTN-0002,VS,02_000852,ACTIVE,59,DBP,DIASTOLIC BLOOD PRESSURE,VITAL SIGNS FORM,SITTING,078,MMHG,078,78,MMHG,,STUDY DAY 13,13,2002,13
NIDA-CTN-0002,VS,02_000852,SCREENING,6,HEIGHT,HEIGHT,PHYSICAL EXAMINATION FORM,,69,INCHES,69,69,INCHES,Y,"BASELINE, ANY DAY PRIOR TO FIRST DOSE",0,2002,1
NIDA-CTN-0002,VS,02_000852,SCREENING,4,PULSE,PULSE,VITAL SIGNS FORM,SITTING,61,BEATS/MINUTE,61,61,BEATS/MINUTE,Y,"BASELINE, ANY DAY PRIOR TO FIRST DOSE",0,2002,1
NIDA-CTN-0002,VS,02_000852,SCREENING,8,PULSE,PULSE,CLINICAL OPIATE WITHDRAWAL SCALE FORM,SITTING,61,BEATS/MINUTE,61,61,BEATS/MINUTE,Y,"BASELINE, ANY DAY PRIOR TO FIRST DOSE",0,2002,1
NIDA-CTN-0002,VS,02_000852,ACTIVE,12,PULSE,PULSE,VITAL SIGNS FORM,SITTING,57,BEATS/MINUTE,57,57,BEATS/MINUTE,,STUDY DAY 1,1,2001,-365
NIDA-CTN-0002,VS,02_000852,ACTIVE,14,PULSE,PULSE,CLINICAL OPIATE WITHDRAWAL SCALE FORM,SITTING,57,BEATS/MINUTE,57,57,BEATS/MINUTE,,STUDY DAY 1,1,2002,1
NIDA-CTN-0002,VS,02_000852,ACTIVE,18,PULSE,PULSE,VITAL SIGNS FORM,SITTING,88,BEATS/MINUTE,88,88,BEATS/MINUTE,,STUDY DAY 2,2,2002,2
NIDA-CTN-0002,VS,02_000852,ACTIVE,20,PULSE,PULSE,CLINICAL OPIATE WITHDRAWAL SCALE FORM,SITTING,88,BEATS/MINUTE,88,88,BEATS/MINUTE,,STUDY DAY 2,2,2002,2
NIDA-CTN-0002,VS,02_000852,ACTIVE,24,PULSE,PULSE,VITAL SIGNS FORM,SITTING,69,BEATS/MINUTE,69,69,BEATS/MINUTE,,STUDY DAY 3,3,2002,3
NIDA-CTN-0002,VS,02_000852,ACTIVE,26,PULSE,PULSE,CLINICAL OPIATE WITHDRAWAL SCALE FORM,SITTING,69,BEATS/MINUTE,69,69,BEATS/MINUTE,,STUDY DAY 3,3,2002,3
NIDA-CTN-0002,VS,02_000852,ACTIVE,30,PULSE,PULSE,VITAL SIGNS FORM,SITTING,61,BEATS/MINUTE,61,61,BEATS/MINUTE,,STUDY DAY 6,6,2002,6
NIDA-CTN-0002,VS,02_000852,ACTIVE,32,PULSE,PULSE,CLINICAL OPIATE WITHDRAWAL SCALE FORM,SITTING,61,BEATS/MINUTE,61,61,BEATS/MINUTE,,STUDY DAY 6,6,2002,6
NIDA-CTN-0002,VS,02_000852,ACTIVE,36,PULSE,PULSE,VITAL SIGNS FORM,SITTING,91,BEATS/MINUTE,91,91,BEATS/MINUTE,,STUDY DAY 7,7,2002,7
NIDA-CTN-0002,VS,02_000852,ACTIVE,38,PULSE,PULSE,CLINICAL OPIATE WITHDRAWAL SCALE FORM,SITTING,91,BEATS/MINUTE,91,91,BEATS/MINUTE,,STUDY DAY 7,7,2002,7
NIDA-CTN-0002,VS,02_000852,ACTIVE,42,PULSE,PULSE,VITAL SIGNS FORM,SITTING,60,BEATS/MINUTE,60,60,BEATS/MINUTE,,STUDY DAY 8,8,2002,8
NIDA-CTN-0002,VS,02_000852,ACTIVE,44,PULSE,PULSE,CLINICAL OPIATE WITHDRAWAL SCALE FORM,SITTING,60,BEATS/MINUTE,60,60,BEATS/MINUTE,,STUDY DAY 8,8,2002,8
NIDA-CTN-0002,VS,02_000852,ACTIVE,48,PULSE,PULSE,VITAL SIGNS FORM,SITTING,58,BEATS/MINUTE,58,58,BEATS/MINUTE,,STUDY DAY 9,9,2002,9
NIDA-CTN-0002,VS,02_000852,ACTIVE,50,PULSE,PULSE,CLINICAL OPIATE WITHDRAWAL SCALE FORM,SITTING,58,BEATS/MINUTE,58,58,BEATS/MINUTE,,STUDY DAY 9,9,2002,9
NIDA-CTN-0002,VS,02_000852,ACTIVE,54,PULSE,PULSE,VITAL SIGNS FORM,SITTING,64,BEATS/MINUTE,64,64,BEATS/MINUTE,,STUDY DAY 10,10,2002,10
NIDA-CTN-0002,VS,02_000852,ACTIVE,56,PULSE,PULSE,CLINICAL OPIATE WITHDRAWAL SCALE FORM,SITTING,64,BEATS/MINUTE,64,64,BEATS/MINUTE,,STUDY DAY 10,10,2002,10
NIDA-CTN-0002,VS,02_000852,ACTIVE,60,PULSE,PULSE,VITAL SIGNS FORM,SITTING,61,BEATS/MINUTE,61,61,BEATS/MINUTE,,STUDY DAY 13,13,2002,13
NIDA-CTN-0002,VS,02_000852,ACTIVE,62,PULSE,PULSE,CLINICAL OPIATE WITHDRAWAL SCALE FORM,SITTING,61,BEATS/MINUTE,61,61,BEATS/MINUTE,,STUDY DAY 13,13,2002,13
NIDA-CTN-0002,VS,02_000852,FOLLOW-UP 1,63,PULSE,PULSE,CLINICAL OPIATE WITHDRAWAL SCALE FORM,SITTING,64,BEATS/MINUTE,64,64,BEATS/MINUTE,,FOLLOW-UP 1,15,2002,31
NIDA-CTN-0002,VS,02_000852,SCREENING,5,RESP,RESPIRATIONS,VITAL SIGNS FORM,SITTING,16,BREATHS/MIN,16,16,BREATHS/MIN,Y,"BASELINE, ANY DAY PRIOR TO FIRST DOSE",0,2002,1
NIDA-CTN-0002,VS,02_000852,ACTIVE,13,RESP,RESPIRATIONS,VITAL SIGNS FORM,SITTING,14,BREATHS/MIN,14,14,BREATHS/MIN,,STUDY DAY 1,1,2001,-365
NIDA-CTN-0002,VS,02_000852,ACTIVE,19,RESP,RESPIRATIONS,VITAL SIGNS FORM,SITTING,14,BREATHS/MIN,14,14,BREATHS/MIN,,STUDY DAY 2,2,2002,2
NIDA-CTN-0002,VS,02_000852,ACTIVE,25,RESP,RESPIRATIONS,VITAL SIGNS FORM,SITTING,13,BREATHS/MIN,13,13,BREATHS/MIN,,STUDY DAY 3,3,2002,3
NIDA-CTN-0002,VS,02_000852,ACTIVE,31,RESP,RESPIRATIONS,VITAL SIGNS FORM,SITTING,18,BREATHS/MIN,18,18,BREATHS/MIN,,STUDY DAY 6,6,2002,6
NIDA-CTN-0002,VS,02_000852,ACTIVE,37,RESP,RESPIRATIONS,VITAL SIGNS FORM,SITTING,16,BREATHS/MIN,16,16,BREATHS/MIN,,STUDY DAY 7,7,2002,7
NIDA-CTN-0002,VS,02_000852,ACTIVE,43,RESP,RESPIRATIONS,VITAL SIGNS FORM,SITTING,16,BREATHS/MIN,16,16,BREATHS/MIN,,STUDY DAY 8,8,2002,8
NIDA-CTN-0002,VS,02_000852,ACTIVE,49,RESP,RESPIRATIONS,VITAL SIGNS FORM,SITTING,17,BREATHS/MIN,17,17,BREATHS/MIN,,STUDY DAY 9,9,2002,9
NIDA-CTN-0002,VS,02_000852,ACTIVE,55,RESP,RESPIRATIONS,VITAL SIGNS FORM,SITTING,16,BREATHS/MIN,16,16,BREATHS/MIN,,STUDY DAY 10,10,2002,10
NIDA-CTN-0002,VS,02_000852,ACTIVE,61,RESP,RESPIRATIONS,VITAL SIGNS FORM,SITTING,16,BREATHS/MIN,16,16,BREATHS/MIN,,STUDY DAY 13,13,2002,13
NIDA-CTN-0002,VS,02_000852,SCREENING,2,SBP,SYSTOLIC BLOOD PRESSURE,VITAL SIGNS FORM,SITTING,129,MMHG,129,129,MMHG,Y,"BASELINE, ANY DAY PRIOR TO FIRST DOSE",0,2002,1
NIDA-CTN-0002,VS,02_000852,ACTIVE,10,SBP,SYSTOLIC BLOOD PRESSURE,VITAL SIGNS FORM,SITTING,110,MMHG,110,110,MMHG,,STUDY DAY 1,1,2001,-365
NIDA-CTN-0002,VS,02_000852,ACTIVE,16,SBP,SYSTOLIC BLOOD PRESSURE,VITAL SIGNS FORM,SITTING,141,MMHG,141,141,MMHG,,STUDY DAY 2,2,2002,2
NIDA-CTN-0002,VS,02_000852,ACTIVE,22,SBP,SYSTOLIC BLOOD PRESSURE,VITAL SIGNS FORM,SITTING,128,MMHG,128,128,MMHG,,STUDY DAY 3,3,2002,3
NIDA-CTN-0002,VS,02_000852,ACTIVE,28,SBP,SYSTOLIC BLOOD PRESSURE,VITAL SIGNS FORM,SITTING,133,MMHG,133,133,MMHG,,STUDY DAY 6,6,2002,6
NIDA-CTN-0002,VS,02_000852,ACTIVE,34,SBP,SYSTOLIC BLOOD PRESSURE,VITAL SIGNS FORM,SITTING,142,MMHG,142,142,MMHG,,STUDY DAY 7,7,2002,7
NIDA-CTN-0002,VS,02_000852,ACTIVE,40,SBP,SYSTOLIC BLOOD PRESSURE,VITAL SIGNS FORM,SITTING,123,MMHG,123,123,MMHG,,STUDY DAY 8,8,2002,8
NIDA-CTN-0002,VS,02_000852,ACTIVE,46,SBP,SYSTOLIC BLOOD PRESSURE,VITAL SIGNS FORM,SITTING,128,MMHG,128,128,MMHG,,STUDY DAY 9,9,2002,9
NIDA-CTN-0002,VS,02_000852,ACTIVE,52,SBP,SYSTOLIC BLOOD PRESSURE,VITAL SIGNS FORM,SITTING,126,MMHG,126,126,MMHG,,STUDY DAY 10,10,2002,10
NIDA-CTN-0002,VS,02_000852,ACTIVE,58,SBP,SYSTOLIC BLOOD PRESSURE,VITAL SIGNS FORM,SITTING,113,MMHG,113,113,MMHG,,STUDY DAY 13,13,2002,13
NIDA-CTN-0002,VS,02_000852,SCREENING,1,TEMP,TEMPERATURE,VITAL SIGNS FORM,SITTING,98.8,F,98.8,98.8,F,Y,"BASELINE, ANY DAY PRIOR TO FIRST DOSE",0,2002,1
NIDA-CTN-0002,VS,02_000852,ACTIVE,9,TEMP,TEMPERATURE,VITAL SIGNS FORM,SITTING,98.8,F,98.8,98.8,F,,STUDY DAY 1,1,2001,-365
NIDA-CTN-0002,VS,02_000852,ACTIVE,15,TEMP,TEMPERATURE,VITAL SIGNS FORM,SITTING,97.8,F,97.8,97.8,F,,STUDY DAY 2,2,2002,2
NIDA-CTN-0002,VS,02_000852,ACTIVE,21,TEMP,TEMPERATURE,VITAL SIGNS FORM,SITTING,97.8,F,97.8,97.8,F,,STUDY DAY 3,3,2002,3
NIDA-CTN-0002,VS,02_000852,ACTIVE,27,TEMP,TEMPERATURE,VITAL SIGNS FORM,SITTING,98.4,F,98.4,98.4,F,,STUDY DAY 6,6,2002,6
NIDA-CTN-0002,VS,02_000852,ACTIVE,33,TEMP,TEMPERATURE,VITAL SIGNS FORM,SITTING,98.3,F,98.3,98.3,F,,STUDY DAY 7,7,2002,7
NIDA-CTN-0002,VS,02_000852,ACTIVE,39,TEMP,TEMPERATURE,VITAL SIGNS FORM,SITTING,97.2,F,97.2,97.2,F,,STUDY DAY 8,8,2002,8
NIDA-CTN-0002,VS,02_000852,ACTIVE,45,TEMP,TEMPERATURE,VITAL SIGNS FORM,SITTING,96.8,F,96.8,96.8,F,,STUDY DAY 9,9,2002,9
NIDA-CTN-0002,VS,02_000852,ACTIVE,51,TEMP,TEMPERATURE,VITAL SIGNS FORM,SITTING,97.2,F,97.2,97.2,F,,STUDY DAY 10,10,2002,10
NIDA-CTN-0002,VS,02_000852,ACTIVE,57,TEMP,TEMPERATURE,VITAL SIGNS FORM,SITTING,98.3,F,98.3,98.3,F,,STUDY DAY 13,13,2002,13
NIDA-CTN-0002,VS,02_000852,SCREENING,7,WEIGHT,WEIGHT,PHYSICAL EXAMINATION FORM,,190,POUNDS,190,190,POUNDS,Y,"BASELINE, ANY DAY PRIOR TO FIRST DOSE",0,2002,1
NIDA-CTN-0002,VS,02_002365,SCREENING,3,DBP,DIASTOLIC BLOOD PRESSURE,VITAL SIGNS FORM,SITTING,077,MMHG,077,77,MMHG,Y,"BASELINE, ANY DAY PRIOR TO FIRST DOSE",0,2001,1
NIDA-CTN-0002,VS,02_002365,ACTIVE,11,DBP,DIASTOLIC BLOOD PRESSURE,VITAL SIGNS FORM,SITTING,072,MMHG,072,72,MMHG,,STUDY DAY 2,2,2001,2
NIDA-CTN-0002,VS,02_002365,ACTIVE,17,DBP,DIASTOLIC BLOOD PRESSURE,VITAL SIGNS FORM,SITTING,088,MMHG,088,88,MMHG,,STUDY DAY 3,3,2001,3
NIDA-CTN-0002,VS,02_002365,ACTIVE,23,DBP,DIASTOLIC BLOOD PRESSURE,VITAL SIGNS FORM,SITTING,091,MMHG,091,91,MMHG,,STUDY DAY 4,4,2001,4
NIDA-CTN-0002,VS,02_002365,ACTIVE,29,DBP,DIASTOLIC BLOOD PRESSURE,VITAL SIGNS FORM,SITTING,092,MMHG,092,92,MMHG,,STUDY DAY 7,7,2001,7
NIDA-CTN-0002,VS,02_002365,ACTIVE,35,DBP,DIASTOLIC BLOOD PRESSURE,VITAL SIGNS FORM,SITTING,088,MMHG,088,88,MMHG,,STUDY DAY 8,8,2001,8
NIDA-CTN-0002,VS,02_002365,ACTIVE,41,DBP,DIASTOLIC BLOOD PRESSURE,VITAL SIGNS FORM,SITTING,080,MMHG,080,80,MMHG,,STUDY DAY 9,9,2001,9
NIDA-CTN-0002,VS,02_002365,ACTIVE,47,DBP,DIASTOLIC BLOOD PRESSURE,VITAL SIGNS FORM,SITTING,080,MMHG,080,80,MMHG,,STUDY DAY 11,11,2001,11
NIDA-CTN-0002,VS,02_002365,ACTIVE,53,DBP,DIASTOLIC BLOOD PRESSURE,VITAL SIGNS FORM,SITTING,085,MMHG,085,85,MMHG,,STUDY DAY 14,14,2001,14
NIDA-CTN-0002,VS,02_002365,SCREENING,6,HEIGHT,HEIGHT,PHYSICAL EXAMINATION FORM,,64,INCHES,64,64,INCHES,Y,"BASELINE, ANY DAY PRIOR TO FIRST DOSE",0,2001,1
NIDA-CTN-0002,VS,02_002365,SCREENING,4,PULSE,PULSE,VITAL SIGNS FORM,SITTING,69,BEATS/MINUTE,69,69,BEATS/MINUTE,Y,"BASELINE, ANY DAY PRIOR TO FIRST DOSE",0,2001,1
NIDA-CTN-0002,VS,02_002365,SCREENING,8,PULSE,PULSE,CLINICAL OPIATE WITHDRAWAL SCALE FORM,SITTING,69,BEATS/MINUTE,69,69,BEATS/MINUTE,Y,"BASELINE, ANY DAY PRIOR TO FIRST DOSE",0,2001,1
NIDA-CTN-0002,VS,02_002365,ACTIVE,12,PULSE,PULSE,VITAL SIGNS FORM,SITTING,72,BEATS/MINUTE,72,72,BEATS/MINUTE,,STUDY DAY 2,2,2001,2
NIDA-CTN-0002,VS,02_002365,ACTIVE,14,PULSE,PULSE,CLINICAL OPIATE WITHDRAWAL SCALE FORM,SITTING,72,BEATS/MINUTE,72,72,BEATS/MINUTE,,STUDY DAY 2,2,2001,2
NIDA-CTN-0002,VS,02_002365,ACTIVE,18,PULSE,PULSE,VITAL SIGNS FORM,SITTING,74,BEATS/MINUTE,74,74,BEATS/MINUTE,,STUDY DAY 3,3,2001,3
NIDA-CTN-0002,VS,02_002365,ACTIVE,20,PULSE,PULSE,CLINICAL OPIATE WITHDRAWAL SCALE FORM,SITTING,74,BEATS/MINUTE,74,74,BEATS/MINUTE,,STUDY DAY 3,3,2001,3
NIDA-CTN-0002,VS,02_002365,ACTIVE,24,PULSE,PULSE,VITAL SIGNS FORM,SITTING,78,BEATS/MINUTE,78,78,BEATS/MINUTE,,STUDY DAY 4,4,2001,4
NIDA-CTN-0002,VS,02_002365,ACTIVE,26,PULSE,PULSE,CLINICAL OPIATE WITHDRAWAL SCALE FORM,SITTING,78,BEATS/MINUTE,78,78,BEATS/MINUTE,,STUDY DAY 4,4,2001,4
NIDA-CTN-0002,VS,02_002365,ACTIVE,30,PULSE,PULSE,VITAL SIGNS FORM,SITTING,92,BEATS/MINUTE,92,92,BEATS/MINUTE,,STUDY DAY 7,7,2001,7
NIDA-CTN-0002,VS,02_002365,ACTIVE,32,PULSE,PULSE,CLINICAL OPIATE WITHDRAWAL SCALE FORM,SITTING,92,BEATS/MINUTE,92,92,BEATS/MINUTE,,STUDY DAY 7,7,2001,7
NIDA-CTN-0002,VS,02_002365,ACTIVE,36,PULSE,PULSE,VITAL SIGNS FORM,SITTING,66,BEATS/MINUTE,66,66,BEATS/MINUTE,,STUDY DAY 8,8,2001,8
NIDA-CTN-0002,VS,02_002365,ACTIVE,38,PULSE,PULSE,CLINICAL OPIATE WITHDRAWAL SCALE FORM,SITTING,66,BEATS/MINUTE,66,66,BEATS/MINUTE,,STUDY DAY 8,8,2001,8
NIDA-CTN-0002,VS,02_002365,ACTIVE,42,PULSE,PULSE,VITAL SIGNS FORM,SITTING,70,BEATS/MINUTE,70,70,BEATS/MINUTE,,STUDY DAY 9,9,2001,9
NIDA-CTN-0002,VS,02_002365,ACTIVE,44,PULSE,PULSE,CLINICAL OPIATE WITHDRAWAL SCALE FORM,SITTING,70,BEATS/MINUTE,70,70,BEATS/MINUTE,,STUDY DAY 9,9,2001,9
NIDA-CTN-0002,VS,02_002365,ACTIVE,48,PULSE,PULSE,VITAL SIGNS FORM,SITTING,73,BEATS/MINUTE,73,73,BEATS/MINUTE,,STUDY DAY 11,11,2001,11
NIDA-CTN-0002,VS,02_002365,ACTIVE,50,PULSE,PULSE,CLINICAL OPIATE WITHDRAWAL SCALE FORM,SITTING,73,BEATS/MINUTE,73,73,BEATS/MINUTE,,STUDY DAY 11,11,2001,11
NIDA-CTN-0002,VS,02_002365,ACTIVE,54,PULSE,PULSE,VITAL SIGNS FORM,SITTING,75,BEATS/MINUTE,75,75,BEATS/MINUTE,,STUDY DAY 14,14,2001,14
NIDA-CTN-0002,VS,02_002365,ACTIVE,56,PULSE,PULSE,CLINICAL OPIATE WITHDRAWAL SCALE FORM,SITTING,75,BEATS/MINUTE,75,75,BEATS/MINUTE,,STUDY DAY 14,14,2001,14
NIDA-CTN-0002,VS,02_002365,SCREENING,5,RESP,RESPIRATIONS,VITAL SIGNS FORM,SITTING,16,BREATHS/MIN,16,16,BREATHS/MIN,Y,"BASELINE, ANY DAY PRIOR TO FIRST DOSE",0,2001,1
NIDA-CTN-0002,VS,02_002365,ACTIVE,13,RESP,RESPIRATIONS,VITAL SIGNS FORM,SITTING,16,BREATHS/MIN,16,16,BREATHS/MIN,,STUDY DAY 2,2,2001,2
NIDA-CTN-0002,VS,02_002365,ACTIVE,19,RESP,RESPIRATIONS,VITAL SIGNS FORM,SITTING,16,BREATHS/MIN,16,16,BREATHS/MIN,,STUDY DAY 3,3,2001,3
NIDA-CTN-0002,VS,02_002365,ACTIVE,25,RESP,RESPIRATIONS,VITAL SIGNS FORM,SITTING,24,BREATHS/MIN,24,24,BREATHS/MIN,,STUDY DAY 4,4,2001,4
NIDA-CTN-0002,VS,02_002365,ACTIVE,31,RESP,RESPIRATIONS,VITAL SIGNS FORM,SITTING,16,BREATHS/MIN,16,16,BREATHS/MIN,,STUDY DAY 7,7,2001,7
NIDA-CTN-0002,VS,02_002365,ACTIVE,37,RESP,RESPIRATIONS,VITAL SIGNS FORM,SITTING,16,BREATHS/MIN,16,16,BREATHS/MIN,,STUDY DAY 8,8,2001,8
NIDA-CTN-0002,VS,02_002365,ACTIVE,43,RESP,RESPIRATIONS,VITAL SIGNS FORM,SITTING,16,BREATHS/MIN,16,16,BREATHS/MIN,,STUDY DAY 9,9,2001,9
NIDA-CTN-0002,VS,02_002365,ACTIVE,49,RESP,RESPIRATIONS,VITAL SIGNS FORM,SITTING,16,BREATHS/MIN,16,16,BREATHS/MIN,,STUDY DAY 11,11,2001,11
NIDA-CTN-0002,VS,02_002365,ACTIVE,55,RESP,RESPIRATIONS,VITAL SIGNS FORM,SITTING,16,BREATHS/MIN,16,16,BREATHS/MIN,,STUDY DAY 14,14,2001,14
NIDA-CTN-0002,VS,02_002365,SCREENING,2,SBP,SYSTOLIC BLOOD PRESSURE,VITAL SIGNS FORM,SITTING,127,MMHG,127,127,MMHG,Y,"BASELINE, ANY DAY PRIOR TO FIRST DOSE",0,2001,1
NIDA-CTN-0002,VS,02_002365,ACTIVE,10,SBP,SYSTOLIC BLOOD PRESSURE,VITAL SIGNS FORM,SITTING,128,MMHG,128,128,MMHG,,STUDY DAY 2,2,2001,2
NIDA-CTN-0002,VS,02_002365,ACTIVE,16,SBP,SYSTOLIC BLOOD PRESSURE,VITAL SIGNS FORM,SITTING,144,MMHG,144,144,MMHG,,STUDY DAY 3,3,2001,3
NIDA-CTN-0002,VS,02_002365,ACTIVE,22,SBP,SYSTOLIC BLOOD PRESSURE,VITAL SIGNS FORM,SITTING,148,MMHG,148,148,MMHG,,STUDY DAY 4,4,2001,4
NIDA-CTN-0002,VS,02_002365,ACTIVE,28,SBP,SYSTOLIC BLOOD PRESSURE,VITAL SIGNS FORM,SITTING,150,MMHG,150,150,MMHG,,STUDY DAY 7,7,2001,7
NIDA-CTN-0002,VS,02_002365,ACTIVE,34,SBP,SYSTOLIC BLOOD PRESSURE,VITAL SIGNS FORM,SITTING,128,MMHG,128,128,MMHG,,STUDY DAY 8,8,2001,8
NIDA-CTN-0002,VS,02_002365,ACTIVE,40,SBP,SYSTOLIC BLOOD PRESSURE,VITAL SIGNS FORM,SITTING,131,MMHG,131,131,MMHG,,STUDY DAY 9,9,2001,9
NIDA-CTN-0002,VS,02_002365,ACTIVE,46,SBP,SYSTOLIC BLOOD PRESSURE,VITAL SIGNS FORM,SITTING,132,MMHG,132,132,MMHG,,STUDY DAY 11,11,2001,11
NIDA-CTN-0002,VS,02_002365,ACTIVE,52,SBP,SYSTOLIC BLOOD PRESSURE,VITAL SIGNS FORM,SITTING,128,MMHG,128,128,MMHG,,STUDY DAY 14,14,2001,14
NIDA-CTN-0002,VS,02_002365,SCREENING,1,TEMP,TEMPERATURE,VITAL SIGNS FORM,SITTING,97.7,F,97.7,97.7,F,Y,"BASELINE, ANY DAY PRIOR TO FIRST DOSE",0,2001,1
NIDA-CTN-0002,VS,02_002365,ACTIVE,9,TEMP,TEMPERATURE,VITAL SIGNS FORM,SITTING,97.8,F,97.8,97.8,F,,STUDY DAY 2,2,2001,2
NIDA-CTN-0002,VS,02_002365,ACTIVE,15,TEMP,TEMPERATURE,VITAL SIGNS FORM,SITTING,99.1,F,99.1,99.1,F,,STUDY DAY 3,3,2001,3
NIDA-CTN-0002,VS,02_002365,ACTIVE,21,TEMP,TEMPERATURE,VITAL SIGNS FORM,SITTING,98.3,F,98.3,98.3,F,,STUDY DAY 4,4,2001,4
NIDA-CTN-0002,VS,02_002365,ACTIVE,27,TEMP,TEMPERATURE,VITAL SIGNS FORM,SITTING,96.7,F,96.7,96.7,F,,STUDY DAY 7,7,2001,7
NIDA-CTN-0002,VS,02_002365,ACTIVE,33,TEMP,TEMPERATURE,VITAL SIGNS FORM,SITTING,97.5,F,97.5,97.5,F,,STUDY DAY 8,8,2001,8
NIDA-CTN-0002,VS,02_002365,ACTIVE,39,TEMP,TEMPERATURE,VITAL SIGNS FORM,SITTING,98.1,F,98.1,98.1,F,,STUDY DAY 9,9,2001,9
NIDA-CTN-0002,VS,02_002365,ACTIVE,45,TEMP,TEMPERATURE,VITAL SIGNS FORM,SITTING,98.2,F,98.2,98.2,F,,STUDY DAY 11,11,2001,11
NIDA-CTN-0002,VS,02_002365,ACTIVE,51,TEMP,TEMPERATURE,VITAL SIGNS FORM,SITTING,97.3,F,97.3,97.3,F,,STUDY DAY 14,14,2001,14
NIDA-CTN-0002,VS,02_002365,SCREENING,7,WEIGHT,WEIGHT,PHYSICAL EXAMINATION FORM,,137,POUNDS,137,137,POUNDS,Y,"BASELINE, ANY DAY PRIOR TO FIRST DOSE",0,2001,1
NIDA-CTN-0002,VS,02_002504,SCREENING,3,DBP,DIASTOLIC BLOOD PRESSURE,VITAL SIGNS FORM,SITTING,068,MMHG,068,68,MMHG,Y,"BASELINE, ANY DAY PRIOR TO FIRST DOSE",0,2001,-1
NIDA-CTN-0002,VS,02_002504,ACTIVE,11,DBP,DIASTOLIC BLOOD PRESSURE,VITAL SIGNS FORM,SITTING,080,MMHG,080,80,MMHG,,STUDY DAY 1,1,2001,1
NIDA-CTN-0002,VS,02_002504,ACTIVE,17,DBP,DIASTOLIC BLOOD PRESSURE,VITAL SIGNS FORM,SITTING,064,MMHG,064,64,MMHG,,STUDY DAY 2,2,2001,2
NIDA-CTN-0002,VS,02_002504,ACTIVE,23,DBP,DIASTOLIC BLOOD PRESSURE,VITAL SIGNS FORM,SITTING,058,MMHG,058,58,MMHG,,STUDY DAY 3,3,2001,3
NIDA-CTN-0002,VS,02_002504,ACTIVE,29,DBP,DIASTOLIC BLOOD PRESSURE,VITAL SIGNS FORM,SITTING,052,MMHG,052,52,MMHG,,STUDY DAY 6,6,2001,6
NIDA-CTN-0002,VS,02_002504,ACTIVE,35,DBP,DIASTOLIC BLOOD PRESSURE,VITAL SIGNS FORM,SITTING,068,MMHG,068,68,MMHG,,STUDY DAY 7,7,2001,7
NIDA-CTN-0002,VS,02_002504,ACTIVE,41,DBP,DIASTOLIC BLOOD PRESSURE,VITAL SIGNS FORM,SITTING,064,MMHG,064,64,MMHG,,STUDY DAY 8,8,2001,8
NIDA-CTN-0002,VS,02_002504,ACTIVE,47,DBP,DIASTOLIC BLOOD PRESSURE,VITAL SIGNS FORM,SITTING,080,MMHG,080,80,MMHG,,STUDY DAY 9,9,2001,9
NIDA-CTN-0002,VS,02_002504,ACTIVE,53,DBP,DIASTOLIC BLOOD PRESSURE,VITAL SIGNS FORM,SITTING,064,MMHG,064,64,MMHG,,STUDY DAY 10,10,2001,10
NIDA-CTN-0002,VS,02_002504,SCREENING,7,HEIGHT,HEIGHT,PHYSICAL EXAMINATION FORM,,61,INCHES,61,61,INCHES,Y,"BASELINE, ANY DAY PRIOR TO FIRST DOSE",0,2001,1
NIDA-CTN-0002,VS,02_002504,SCREENING,4,PULSE,PULSE,VITAL SIGNS FORM,SITTING,76,BEATS/MINUTE,76,76,BEATS/MINUTE,Y,"BASELINE, ANY DAY PRIOR TO FIRST DOSE",0,2001,-1
NIDA-CTN-0002,VS,02_002504,SCREENING,6,PULSE,PULSE,CLINICAL OPIATE WITHDRAWAL SCALE FORM,SITTING,76,BEATS/MINUTE,76,76,BEATS/MINUTE,Y,"BASELINE, ANY DAY PRIOR TO FIRST DOSE",0,2001,-1
NIDA-CTN-0002,VS,02_002504,ACTIVE,12,PULSE,PULSE,VITAL SIGNS FORM,SITTING,72,BEATS/MINUTE,72,72,BEATS/MINUTE,,STUDY DAY 1,1,2001,1
NIDA-CTN-0002,VS,02_002504,ACTIVE,14,PULSE,PULSE,CLINICAL OPIATE WITHDRAWAL SCALE FORM,SITTING,72,BEATS/MINUTE,72,72,BEATS/MINUTE,,STUDY DAY 1,1,2001,1
NIDA-CTN-0002,VS,02_002504,ACTIVE,18,PULSE,PULSE,VITAL SIGNS FORM,SITTING,112,BEATS/MINUTE,112,112,BEATS/MINUTE,,STUDY DAY 2,2,2001,2
NIDA-CTN-0002,VS,02_002504,ACTIVE,20,PULSE,PULSE,CLINICAL OPIATE WITHDRAWAL SCALE FORM,SITTING,112,BEATS/MINUTE,112,112,BEATS/MINUTE,,STUDY DAY 2,2,2001,2
NIDA-CTN-0002,VS,02_002504,ACTIVE,24,PULSE,PULSE,VITAL SIGNS FORM,SITTING,104,BEATS/MINUTE,104,104,BEATS/MINUTE,,STUDY DAY 3,3,2001,3
NIDA-CTN-0002,VS,02_002504,ACTIVE,26,PULSE,PULSE,CLINICAL OPIATE WITHDRAWAL SCALE FORM,SITTING,104,BEATS/MINUTE,104,104,BEATS/MINUTE,,STUDY DAY 3,3,2001,3
NIDA-CTN-0002,VS,02_002504,ACTIVE,30,PULSE,PULSE,VITAL SIGNS FORM,SITTING,92,BEATS/MINUTE,92,92,BEATS/MINUTE,,STUDY DAY 6,6,2001,6
NIDA-CTN-0002,VS,02_002504,ACTIVE,32,PULSE,PULSE,CLINICAL OPIATE WITHDRAWAL SCALE FORM,SITTING,92,BEATS/MINUTE,92,92,BEATS/MINUTE,,STUDY DAY 6,6,2001,6
NIDA-CTN-0002,VS,02_002504,ACTIVE,36,PULSE,PULSE,VITAL SIGNS FORM,SITTING,104,BEATS/MINUTE,104,104,BEATS/MINUTE,,STUDY DAY 7,7,2001,7
NIDA-CTN-0002,VS,02_002504,ACTIVE,38,PULSE,PULSE,CLINICAL OPIATE WITHDRAWAL SCALE FORM,SITTING,104,BEATS/MINUTE,104,104,BEATS/MINUTE,,STUDY DAY 7,7,2001,7
NIDA-CTN-0002,VS,02_002504,ACTIVE,42,PULSE,PULSE,VITAL SIGNS FORM,SITTING,100,BEATS/MINUTE,100,100,BEATS/MINUTE,,STUDY DAY 8,8,2001,8
NIDA-CTN-0002,VS,02_002504,ACTIVE,44,PULSE,PULSE,CLINICAL OPIATE WITHDRAWAL SCALE FORM,SITTING,100,BEATS/MINUTE,100,100,BEATS/MINUTE,,STUDY DAY 8,8,2001,8
NIDA-CTN-0002,VS,02_002504,ACTIVE,48,PULSE,PULSE,VITAL SIGNS FORM,SITTING,72,BEATS/MINUTE,72,72,BEATS/MINUTE,,STUDY DAY 9,9,2001,9
NIDA-CTN-0002,VS,02_002504,ACTIVE,50,PULSE,PULSE,CLINICAL OPIATE WITHDRAWAL SCALE FORM,SITTING,72,BEATS/MINUTE,72,72,BEATS/MINUTE,,STUDY DAY 9,9,2001,9
NIDA-CTN-0002,VS,02_002504,ACTIVE,54,PULSE,PULSE,VITAL SIGNS FORM,SITTING,92,BEATS/MINUTE,92,92,BEATS/MINUTE,,STUDY DAY 10,10,2001,10
NIDA-CTN-0002,VS,02_002504,ACTIVE,56,PULSE,PULSE,CLINICAL OPIATE WITHDRAWAL SCALE FORM,SITTING,92,BEATS/MINUTE,92,92,BEATS/MINUTE,,STUDY DAY 10,10,2001,10
NIDA-CTN-0002,VS,02_002504,SCREENING,5,RESP,RESPIRATIONS,VITAL SIGNS FORM,SITTING,12,BREATHS/MIN,12,12,BREATHS/MIN,Y,"BASELINE, ANY DAY PRIOR TO FIRST DOSE",0,2001,-1
NIDA-CTN-0002,VS,02_002504,ACTIVE,13,RESP,RESPIRATIONS,VITAL SIGNS FORM,SITTING,20,BREATHS/MIN,20,20,BREATHS/MIN,,STUDY DAY 1,1,2001,1
NIDA-CTN-0002,VS,02_002504,ACTIVE,19,RESP,RESPIRATIONS,VITAL SIGNS FORM,SITTING,12,BREATHS/MIN,12,12,BREATHS/MIN,,STUDY DAY 2,2,2001,2
NIDA-CTN-0002,VS,02_002504,ACTIVE,25,RESP,RESPIRATIONS,VITAL SIGNS FORM,SITTING,12,BREATHS/MIN,12,12,BREATHS/MIN,,STUDY DAY 3,3,2001,3
NIDA-CTN-0002,VS,02_002504,ACTIVE,31,RESP,RESPIRATIONS,VITAL SIGNS FORM,SITTING,20,BREATHS/MIN,20,20,BREATHS/MIN,,STUDY DAY 6,6,2001,6
NIDA-CTN-0002,VS,02_002504,ACTIVE,37,RESP,RESPIRATIONS,VITAL SIGNS FORM,SITTING,12,BREATHS/MIN,12,12,BREATHS/MIN,,STUDY DAY 7,7,2001,7
NIDA-CTN-0002,VS,02_002504,ACTIVE,43,RESP,RESPIRATIONS,VITAL SIGNS FORM,SITTING,12,BREATHS/MIN,12,12,BREATHS/MIN,,STUDY DAY 8,8,2001,8
NIDA-CTN-0002,VS,02_002504,ACTIVE,49,RESP,RESPIRATIONS,VITAL SIGNS FORM,SITTING,12,BREATHS/MIN,12,12,BREATHS/MIN,,STUDY DAY 9,9,2001,9
NIDA-CTN-0002,VS,02_002504,ACTIVE,55,RESP,RESPIRATIONS,VITAL SIGNS FORM,SITTING,12,BREATHS/MIN,12,12,BREATHS/MIN,,STUDY DAY 10,10,2001,10
NIDA-CTN-0002,VS,02_002504,SCREENING,2,SBP,SYSTOLIC BLOOD PRESSURE,VITAL SIGNS FORM,SITTING,118,MMHG,118,118,MMHG,Y,"BASELINE, ANY DAY PRIOR TO FIRST DOSE",0,2001,-1
NIDA-CTN-0002,VS,02_002504,ACTIVE,10,SBP,SYSTOLIC BLOOD PRESSURE,VITAL SIGNS FORM,SITTING,112,MMHG,112,112,MMHG,,STUDY DAY 1,1,2001,1
NIDA-CTN-0002,VS,02_002504,ACTIVE,16,SBP,SYSTOLIC BLOOD PRESSURE,VITAL SIGNS FORM,SITTING,108,MMHG,108,108,MMHG,,STUDY DAY 2,2,2001,2
NIDA-CTN-0002,VS,02_002504,ACTIVE,22,SBP,SYSTOLIC BLOOD PRESSURE,VITAL SIGNS FORM,SITTING,112,MMHG,112,112,MMHG,,STUDY DAY 3,3,2001,3
NIDA-CTN-0002,VS,02_002504,ACTIVE,28,SBP,SYSTOLIC BLOOD PRESSURE,VITAL SIGNS FORM,SITTING,108,MMHG,108,108,MMHG,,STUDY DAY 6,6,2001,6
NIDA-CTN-0002,VS,02_002504,ACTIVE,34,SBP,SYSTOLIC BLOOD PRESSURE,VITAL SIGNS FORM,SITTING,114,MMHG,114,114,MMHG,,STUDY DAY 7,7,2001,7
NIDA-CTN-0002,VS,02_002504,ACTIVE,40,SBP,SYSTOLIC BLOOD PRESSURE,VITAL SIGNS FORM,SITTING,104,MMHG,104,104,MMHG,,STUDY DAY 8,8,2001,8
NIDA-CTN-0002,VS,02_002504,ACTIVE,46,SBP,SYSTOLIC BLOOD PRESSURE,VITAL SIGNS FORM,SITTING,104,MMHG,104,104,MMHG,,STUDY DAY 9,9,2001,9
NIDA-CTN-0002,VS,02_002504,ACTIVE,52,SBP,SYSTOLIC BLOOD PRESSURE,VITAL SIGNS FORM,SITTING,118,MMHG,118,118,MMHG,,STUDY DAY 10,10,2001,10
NIDA-CTN-0002,VS,02_002504,SCREENING,1,TEMP,TEMPERATURE,VITAL SIGNS FORM,SITTING,98.0,F,98.0,98,F,Y,"BASELINE, ANY DAY PRIOR TO FIRST DOSE",0,2001,-1
NIDA-CTN-0002,VS,02_002504,ACTIVE,9,TEMP,TEMPERATURE,VITAL SIGNS FORM,SITTING,99.0,F,99.0,99,F,,STUDY DAY 1,1,2001,1
NIDA-CTN-0002,VS,02_002504,ACTIVE,15,TEMP,TEMPERATURE,VITAL SIGNS FORM,SITTING,98.0,F,98.0,98,F,,STUDY DAY 2,2,2001,2
NIDA-CTN-0002,VS,02_002504,ACTIVE,21,TEMP,TEMPERATURE,VITAL SIGNS FORM,SITTING,98.0,F,98.0,98,F,,STUDY DAY 3,3,2001,3
NIDA-CTN-0002,VS,02_002504,ACTIVE,27,TEMP,TEMPERATURE,VITAL SIGNS FORM,SITTING,98.0,F,98.0,98,F,,STUDY DAY 6,6,2001,6
NIDA-CTN-0002,VS,02_002504,ACTIVE,33,TEMP,TEMPERATURE,VITAL SIGNS FORM,SITTING,98.0,F,98.0,98,F,,STUDY DAY 7,7,2001,7
NIDA-CTN-0002,VS,02_002504,ACTIVE,39,TEMP,TEMPERATURE,VITAL SIGNS FORM,SITTING,97.0,F,97.0,97,F,,STUDY DAY 8,8,2001,8
NIDA-CTN-0002,VS,02_002504,ACTIVE,45,TEMP,TEMPERATURE,VITAL SIGNS FORM,SITTING,98.0,F,98.0,98,F,,STUDY DAY 9,9,2001,9
NIDA-CTN-0002,VS,02_002504,ACTIVE,51,TEMP,TEMPERATURE,VITAL SIGNS FORM,SITTING,97.0,F,97.0,97,F,,STUDY DAY 10,10,2001,10
NIDA-CTN-0002,VS,02_002504,SCREENING,8,WEIGHT,WEIGHT,PHYSICAL EXAMINATION FORM,,108,POUNDS,108,108,POUNDS,Y,"BASELINE, ANY DAY PRIOR TO FIRST DOSE",0,2001,1
NIDA-CTN-0002,VS,02_002823,SCREENING,2,DBP,DIASTOLIC BLOOD PRESSURE,VITAL SIGNS FORM,SITTING,079,MMHG,079,79,MMHG,Y,"BASELINE, ANY DAY PRIOR TO FIRST DOSE",0,2001," "
NIDA-CTN-0002,VS,02_002823,SCREENING,5,HEIGHT,HEIGHT,PHYSICAL EXAMINATION FORM,,69,INCHES,69,69,INCHES,Y,"BASELINE, ANY DAY PRIOR TO FIRST DOSE",0,2001," "
NIDA-CTN-0002,VS,02_002823,SCREENING,3,PULSE,PULSE,VITAL SIGNS FORM,SITTING,56,BEATS/MINUTE,56,56,BEATS/MINUTE,Y,"BASELINE, ANY DAY PRIOR TO FIRST DOSE",0,2001," "
NIDA-CTN-0002,VS,02_002823,SCREENING,7,PULSE,PULSE,CLINICAL OPIATE WITHDRAWAL SCALE FORM,SITTING,56,BEATS/MINUTE,56,56,BEATS/MINUTE,Y,"BASELINE, ANY DAY PRIOR TO FIRST DOSE",0,2001," "
NIDA-CTN-0002,VS,02_002823,SCREENING,4,RESP,RESPIRATIONS,VITAL SIGNS FORM,SITTING,14,BREATHS/MIN,14,14,BREATHS/MIN,Y,"BASELINE, ANY DAY PRIOR TO FIRST DOSE",0,2001," "
NIDA-CTN-0002,VS,02_002823,SCREENING,1,SBP,SYSTOLIC BLOOD PRESSURE,VITAL SIGNS FORM,SITTING,135,MMHG,135,135,MMHG,Y,"BASELINE, ANY DAY PRIOR TO FIRST DOSE",0,2001," "
NIDA-CTN-0002,VS,02_002823,SCREENING,6,WEIGHT,WEIGHT,PHYSICAL EXAMINATION FORM,,150,,," ",,Y,"BASELINE, ANY DAY PRIOR TO FIRST DOSE",0,2001," "
NIDA-CTN-0002,VS,02_003272,SCREENING,5,DBP,DIASTOLIC BLOOD PRESSURE,VITAL SIGNS FORM,SITTING,080,MMHG,080,80,MMHG,Y,"BASELINE, ANY DAY PRIOR TO FIRST DOSE",0,2001,1
NIDA-CTN-0002,VS,02_003272,ACTIVE,11,DBP,DIASTOLIC BLOOD PRESSURE,VITAL SIGNS FORM,SITTING,075,MMHG,075,75,MMHG,,STUDY DAY 1,1,2001,1
NIDA-CTN-0002,VS,02_003272,ACTIVE,17,DBP,DIASTOLIC BLOOD PRESSURE,VITAL SIGNS FORM,SITTING,075,MMHG,075,75,MMHG,,STUDY DAY 2,2,2001,2
NIDA-CTN-0002,VS,02_003272,ACTIVE,23,DBP,DIASTOLIC BLOOD PRESSURE,VITAL SIGNS FORM,SITTING,082,MMHG,082,82,MMHG,,STUDY DAY 3,3,2001,3
NIDA-CTN-0002,VS,02_003272,ACTIVE,29,DBP,DIASTOLIC BLOOD PRESSURE,VITAL SIGNS FORM,SITTING,080,MMHG,080,80,MMHG,,STUDY DAY 4,4,2001,4
NIDA-CTN-0002,VS,02_003272,ACTIVE,35,DBP,DIASTOLIC BLOOD PRESSURE,VITAL SIGNS FORM,SITTING,070,MMHG,070,70,MMHG,,STUDY DAY 7,7,2001,7
NIDA-CTN-0002,VS,02_003272,ACTIVE,41,DBP,DIASTOLIC BLOOD PRESSURE,VITAL SIGNS FORM,SITTING,080,MMHG,080,80,MMHG,,STUDY DAY 8,8,2001,8
NIDA-CTN-0002,VS,02_003272,ACTIVE,47,DBP,DIASTOLIC BLOOD PRESSURE,VITAL SIGNS FORM,SITTING,070,MMHG,070,70,MMHG,,STUDY DAY 9,9,2001,9
NIDA-CTN-0002,VS,02_003272,ACTIVE,53,DBP,DIASTOLIC BLOOD PRESSURE,VITAL SIGNS FORM,SITTING,070,MMHG,070,70,MMHG,,STUDY DAY 10,10,2001,10
NIDA-CTN-0002,VS,02_003272,ACTIVE,59,DBP,DIASTOLIC BLOOD PRESSURE,VITAL SIGNS FORM,SITTING,085,MMHG,085,85,MMHG,,STUDY DAY 11,11,2001,11
NIDA-CTN-0002,VS,02_003272,ACTIVE,65,DBP,DIASTOLIC BLOOD PRESSURE,VITAL SIGNS FORM,SITTING,065,MMHG,065,65,MMHG,,STUDY DAY 14,14,2001,14
NIDA-CTN-0002,VS,02_003272,SCREENING,1,HEIGHT,HEIGHT,PHYSICAL EXAMINATION FORM,,68,INCHES,68,68,INCHES,Y,"BASELINE, ANY DAY PRIOR TO FIRST DOSE",0,2001,-1
NIDA-CTN-0002,VS,02_003272,SCREENING,6,PULSE,PULSE,VITAL SIGNS FORM,SITTING,72,BEATS/MINUTE,72,72,BEATS/MINUTE,Y,"BASELINE, ANY DAY PRIOR TO FIRST DOSE",0,2001,1
NIDA-CTN-0002,VS,02_003272,SCREENING,8,PULSE,PULSE,CLINICAL OPIATE WITHDRAWAL SCALE FORM,SITTING,68,BEATS/MINUTE,68,68,BEATS/MINUTE,Y,"BASELINE, ANY DAY PRIOR TO FIRST DOSE",0,2001,1
NIDA-CTN-0002,VS,02_003272,ACTIVE,12,PULSE,PULSE,VITAL SIGNS FORM,SITTING,64,BEATS/MINUTE,64,64,BEATS/MINUTE,,STUDY DAY 1,1,2001,1
NIDA-CTN-0002,VS,02_003272,ACTIVE,14,PULSE,PULSE,CLINICAL OPIATE WITHDRAWAL SCALE FORM,SITTING,64,BEATS/MINUTE,64,64,BEATS/MINUTE,,STUDY DAY 1,1,2001,1
NIDA-CTN-0002,VS,02_003272,ACTIVE,18,PULSE,PULSE,VITAL SIGNS FORM,SITTING,80,BEATS/MINUTE,80,80,BEATS/MINUTE,,STUDY DAY 2,2,2001,2
NIDA-CTN-0002,VS,02_003272,ACTIVE,20,PULSE,PULSE,CLINICAL OPIATE WITHDRAWAL SCALE FORM,SITTING,80,BEATS/MINUTE,80,80,BEATS/MINUTE,,STUDY DAY 2,2,2001,2
NIDA-CTN-0002,VS,02_003272,ACTIVE,24,PULSE,PULSE,VITAL SIGNS FORM,SITTING,80,BEATS/MINUTE,80,80,BEATS/MINUTE,,STUDY DAY 3,3,2001,3
NIDA-CTN-0002,VS,02_003272,ACTIVE,26,PULSE,PULSE,CLINICAL OPIATE WITHDRAWAL SCALE FORM,SITTING,80,BEATS/MINUTE,80,80,BEATS/MINUTE,,STUDY DAY 3,3,2001,3
NIDA-CTN-0002,VS,02_003272,ACTIVE,30,PULSE,PULSE,VITAL SIGNS FORM,SITTING,56,BEATS/MINUTE,56,56,BEATS/MINUTE,,STUDY DAY 4,4,2001,4
NIDA-CTN-0002,VS,02_003272,ACTIVE,32,PULSE,PULSE,CLINICAL OPIATE WITHDRAWAL SCALE FORM,SITTING,80,BEATS/MINUTE,80,80,BEATS/MINUTE,,STUDY DAY 4,4,2001,4
NIDA-CTN-0002,VS,02_003272,ACTIVE,36,PULSE,PULSE,VITAL SIGNS FORM,SITTING,64,BEATS/MINUTE,64,64,BEATS/MINUTE,,STUDY DAY 7,7,2001,7
NIDA-CTN-0002,VS,02_003272,ACTIVE,38,PULSE,PULSE,CLINICAL OPIATE WITHDRAWAL SCALE FORM,SITTING,64,BEATS/MINUTE,64,64,BEATS/MINUTE,,STUDY DAY 7,7,2001,7
NIDA-CTN-0002,VS,02_003272,ACTIVE,42,PULSE,PULSE,VITAL SIGNS FORM,SITTING,80,BEATS/MINUTE,80,80,BEATS/MINUTE,,STUDY DAY 8,8,2001,8
NIDA-CTN-0002,VS,02_003272,ACTIVE,44,PULSE,PULSE,CLINICAL OPIATE WITHDRAWAL SCALE FORM,SITTING,80,BEATS/MINUTE,80,80,BEATS/MINUTE,,STUDY DAY 8,8,2001,8
NIDA-CTN-0002,VS,02_003272,ACTIVE,48,PULSE,PULSE,VITAL SIGNS FORM,SITTING,72,BEATS/MINUTE,72,72,BEATS/MINUTE,,STUDY DAY 9,9,2001,9
NIDA-CTN-0002,VS,02_003272,ACTIVE,50,PULSE,PULSE,CLINICAL OPIATE WITHDRAWAL SCALE FORM,SITTING,72,BEATS/MINUTE,72,72,BEATS/MINUTE,,STUDY DAY 9,9,2001,9
NIDA-CTN-0002,VS,02_003272,ACTIVE,54,PULSE,PULSE,VITAL SIGNS FORM,SITTING,72,BEATS/MINUTE,72,72,BEATS/MINUTE,,STUDY DAY 10,10,2001,10
NIDA-CTN-0002,VS,02_003272,ACTIVE,56,PULSE,PULSE,CLINICAL OPIATE WITHDRAWAL SCALE FORM,SITTING,80,BEATS/MINUTE,80,80,BEATS/MINUTE,,STUDY DAY 10,10,2001,10
NIDA-CTN-0002,VS,02_003272,ACTIVE,60,PULSE,PULSE,VITAL SIGNS FORM,SITTING,80,BEATS/MINUTE,80,80,BEATS/MINUTE,,STUDY DAY 11,11,2001,11
NIDA-CTN-0002,VS,02_003272,ACTIVE,62,PULSE,PULSE,CLINICAL OPIATE WITHDRAWAL SCALE FORM,SITTING,80,BEATS/MINUTE,80,80,BEATS/MINUTE,,STUDY DAY 11,11,2001,11
NIDA-CTN-0002,VS,02_003272,ACTIVE,66,PULSE,PULSE,VITAL SIGNS FORM,SITTING,72,BEATS/MINUTE,72,72,BEATS/MINUTE,,STUDY DAY 14,14,2001,14
NIDA-CTN-0002,VS,02_003272,ACTIVE,68,PULSE,PULSE,CLINICAL OPIATE WITHDRAWAL SCALE FORM,SITTING,72,BEATS/MINUTE,72,72,BEATS/MINUTE,,STUDY DAY 14,14,2001,14
NIDA-CTN-0002,VS,02_003272,FOLLOW-UP 1,69,PULSE,PULSE,CLINICAL OPIATE WITHDRAWAL SCALE FORM,SITTING,60,BEATS/MINUTE,60,60,BEATS/MINUTE,,FOLLOW-UP 1,15,2001,37
NIDA-CTN-0002,VS,02_003272,SCREENING,7,RESP,RESPIRATIONS,VITAL SIGNS FORM,SITTING,16,BREATHS/MIN,16,16,BREATHS/MIN,Y,"BASELINE, ANY DAY PRIOR TO FIRST DOSE",0,2001,1
NIDA-CTN-0002,VS,02_003272,ACTIVE,13,RESP,RESPIRATIONS,VITAL SIGNS FORM,SITTING,16,BREATHS/MIN,16,16,BREATHS/MIN,,STUDY DAY 1,1,2001,1
NIDA-CTN-0002,VS,02_003272,ACTIVE,19,RESP,RESPIRATIONS,VITAL SIGNS FORM,SITTING,20,BREATHS/MIN,20,20,BREATHS/MIN,,STUDY DAY 2,2,2001,2
NIDA-CTN-0002,VS,02_003272,ACTIVE,25,RESP,RESPIRATIONS,VITAL SIGNS FORM,SITTING,16,BREATHS/MIN,16,16,BREATHS/MIN,,STUDY DAY 3,3,2001,3
NIDA-CTN-0002,VS,02_003272,ACTIVE,31,RESP,RESPIRATIONS,VITAL SIGNS FORM,SITTING,16,BREATHS/MIN,16,16,BREATHS/MIN,,STUDY DAY 4,4,2001,4
NIDA-CTN-0002,VS,02_003272,ACTIVE,37,RESP,RESPIRATIONS,VITAL SIGNS FORM,SITTING,16,BREATHS/MIN,16,16,BREATHS/MIN,,STUDY DAY 7,7,2001,7
NIDA-CTN-0002,VS,02_003272,ACTIVE,43,RESP,RESPIRATIONS,VITAL SIGNS FORM,SITTING,16,BREATHS/MIN,16,16,BREATHS/MIN,,STUDY DAY 8,8,2001,8
NIDA-CTN-0002,VS,02_003272,ACTIVE,49,RESP,RESPIRATIONS,VITAL SIGNS FORM,SITTING,20,BREATHS/MIN,20,20,BREATHS/MIN,,STUDY DAY 9,9,2001,9
NIDA-CTN-0002,VS,02_003272,ACTIVE,55,RESP,RESPIRATIONS,VITAL SIGNS FORM,SITTING,20,BREATHS/MIN,20,20,BREATHS/MIN,,STUDY DAY 10,10,2001,10
NIDA-CTN-0002,VS,02_003272,ACTIVE,61,RESP,RESPIRATIONS,VITAL SIGNS FORM,SITTING,16,BREATHS/MIN,16,16,BREATHS/MIN,,STUDY DAY 11,11,2001,11
NIDA-CTN-0002,VS,02_003272,ACTIVE,67,RESP,RESPIRATIONS,VITAL SIGNS FORM,SITTING,20,BREATHS/MIN,20,20,BREATHS/MIN,,STUDY DAY 14,14,2001,14
NIDA-CTN-0002,VS,02_003272,SCREENING,4,SBP,SYSTOLIC BLOOD PRESSURE,VITAL SIGNS FORM,SITTING,110,MMHG,110,110,MMHG,Y,"BASELINE, ANY DAY PRIOR TO FIRST DOSE",0,2001,1
NIDA-CTN-0002,VS,02_003272,ACTIVE,10,SBP,SYSTOLIC BLOOD PRESSURE,VITAL SIGNS FORM,SITTING,109,MMHG,109,109,MMHG,,STUDY DAY 1,1,2001,1
NIDA-CTN-0002,VS,02_003272,ACTIVE,16,SBP,SYSTOLIC BLOOD PRESSURE,VITAL SIGNS FORM,SITTING,110,MMHG,110,110,MMHG,,STUDY DAY 2,2,2001,2
NIDA-CTN-0002,VS,02_003272,ACTIVE,22,SBP,SYSTOLIC BLOOD PRESSURE,VITAL SIGNS FORM,SITTING,110,MMHG,110,110,MMHG,,STUDY DAY 3,3,2001,3
NIDA-CTN-0002,VS,02_003272,ACTIVE,28,SBP,SYSTOLIC BLOOD PRESSURE,VITAL SIGNS FORM,SITTING,109,MMHG,109,109,MMHG,,STUDY DAY 4,4,2001,4
NIDA-CTN-0002,VS,02_003272,ACTIVE,34,SBP,SYSTOLIC BLOOD PRESSURE,VITAL SIGNS FORM,SITTING,102,MMHG,102,102,MMHG,,STUDY DAY 7,7,2001,7
NIDA-CTN-0002,VS,02_003272,ACTIVE,40,SBP,SYSTOLIC BLOOD PRESSURE,VITAL SIGNS FORM,SITTING,125,MMHG,125,125,MMHG,,STUDY DAY 8,8,2001,8
NIDA-CTN-0002,VS,02_003272,ACTIVE,46,SBP,SYSTOLIC BLOOD PRESSURE,VITAL SIGNS FORM,SITTING,110,MMHG,110,110,MMHG,,STUDY DAY 9,9,2001,9
NIDA-CTN-0002,VS,02_003272,ACTIVE,52,SBP,SYSTOLIC BLOOD PRESSURE,VITAL SIGNS FORM,SITTING,095,MMHG,095,95,MMHG,,STUDY DAY 10,10,2001,10
NIDA-CTN-0002,VS,02_003272,ACTIVE,58,SBP,SYSTOLIC BLOOD PRESSURE,VITAL SIGNS FORM,SITTING,125,MMHG,125,125,MMHG,,STUDY DAY 11,11,2001,11
NIDA-CTN-0002,VS,02_003272,ACTIVE,64,SBP,SYSTOLIC BLOOD PRESSURE,VITAL SIGNS FORM,SITTING,090,MMHG,090,90,MMHG,,STUDY DAY 14,14,2001,14
NIDA-CTN-0002,VS,02_003272,SCREENING,3,TEMP,TEMPERATURE,VITAL SIGNS FORM,SITTING,98.4,F,98.4,98.4,F,Y,"BASELINE, ANY DAY PRIOR TO FIRST DOSE",0,2001,1
NIDA-CTN-0002,VS,02_003272,ACTIVE,9,TEMP,TEMPERATURE,VITAL SIGNS FORM,SITTING,99.4,F,99.4,99.4,F,,STUDY DAY 1,1,2001,1
NIDA-CTN-0002,VS,02_003272,ACTIVE,15,TEMP,TEMPERATURE,VITAL SIGNS FORM,SITTING,98.8,F,98.8,98.8,F,,STUDY DAY 2,2,2001,2
NIDA-CTN-0002,VS,02_003272,ACTIVE,21,TEMP,TEMPERATURE,VITAL SIGNS FORM,SITTING,99.6,F,99.6,99.6,F,,STUDY DAY 3,3,2001,3
NIDA-CTN-0002,VS,02_003272,ACTIVE,27,TEMP,TEMPERATURE,VITAL SIGNS FORM,SITTING,99.8,F,99.8,99.8,F,,STUDY DAY 4,4,2001,4
NIDA-CTN-0002,VS,02_003272,ACTIVE,33,TEMP,TEMPERATURE,VITAL SIGNS FORM,SITTING,98.8,F,98.8,98.8,F,,STUDY DAY 7,7,2001,7
NIDA-CTN-0002,VS,02_003272,ACTIVE,39,TEMP,TEMPERATURE,VITAL SIGNS FORM,SITTING,99.9,F,99.9,99.9,F,,STUDY DAY 8,8,2001,8
NIDA-CTN-0002,VS,02_003272,ACTIVE,45,TEMP,TEMPERATURE,VITAL SIGNS FORM,SITTING,99.6,F,99.6,99.6,F,,STUDY DAY 9,9,2001,9
NIDA-CTN-0002,VS,02_003272,ACTIVE,51,TEMP,TEMPERATURE,VITAL SIGNS FORM,SITTING,99.4,F,99.4,99.4,F,,STUDY DAY 10,10,2001,10
NIDA-CTN-0002,VS,02_003272,ACTIVE,57,TEMP,TEMPERATURE,VITAL SIGNS FORM,SITTING,99.8,F,99.8,99.8,F,,STUDY DAY 11,11,2001,11
NIDA-CTN-0002,VS,02_003272,ACTIVE,63,TEMP,TEMPERATURE,VITAL SIGNS FORM,SITTING,99.6,F,99.6,99.6,F,,STUDY DAY 14,14,2001,14
NIDA-CTN-0002,VS,02_003272,SCREENING,2,WEIGHT,WEIGHT,PHYSICAL EXAMINATION FORM,,160,POUNDS,160,160,POUNDS,Y,"BASELINE, ANY DAY PRIOR TO FIRST DOSE",0,2001,-1
NIDA-CTN-0002,VS,02_003371,SCREENING,3,DBP,DIASTOLIC BLOOD PRESSURE,VITAL SIGNS FORM,SITTING,88,MMHG,88,88,MMHG,Y,"BASELINE, ANY DAY PRIOR TO FIRST DOSE",0,2001," "
NIDA-CTN-0002,VS,02_003371,SCREENING,4,PULSE,PULSE,VITAL SIGNS FORM,SITTING,76,BEATS/MINUTE,76,76,BEATS/MINUTE,Y,"BASELINE, ANY DAY PRIOR TO FIRST DOSE",0,2001," "
NIDA-CTN-0002,VS,02_003371,SCREENING,5,RESP,RESPIRATIONS,VITAL SIGNS FORM,SITTING,18,BREATHS/MIN,18,18,BREATHS/MIN,Y,"BASELINE, ANY DAY PRIOR TO FIRST DOSE",0,2001," "
NIDA-CTN-0002,VS,02_003371,SCREENING,2,SBP,SYSTOLIC BLOOD PRESSURE,VITAL SIGNS FORM,SITTING,114,MMHG,114,114,MMHG,Y,"BASELINE, ANY DAY PRIOR TO FIRST DOSE",0,2001," "
NIDA-CTN-0002,VS,02_003371,SCREENING,1,TEMP,TEMPERATURE,VITAL SIGNS FORM,SITTING,99.0,F,99.0,99,F,Y,"BASELINE, ANY DAY PRIOR TO FIRST DOSE",0,2001," "
NIDA-CTN-0002,VS,02_003614,SCREENING,3,DBP,DIASTOLIC BLOOD PRESSURE,VITAL SIGNS FORM,SITTING,64,MMHG,64,64,MMHG,Y,"BASELINE, ANY DAY PRIOR TO FIRST DOSE",0,2002,-12
NIDA-CTN-0002,VS,02_003614,ACTIVE,11,DBP,DIASTOLIC BLOOD PRESSURE,VITAL SIGNS FORM,SITTING,74,MMHG,74,74,MMHG,,STUDY DAY 1,1,2002,1
NIDA-CTN-0002,VS,02_003614,ACTIVE,17,DBP,DIASTOLIC BLOOD PRESSURE,VITAL SIGNS FORM,SITTING,76,MMHG,76,76,MMHG,,STUDY DAY 2,2,2002,2
NIDA-CTN-0002,VS,02_003614,ACTIVE,23,DBP,DIASTOLIC BLOOD PRESSURE,VITAL SIGNS FORM,SITTING,69,MMHG,69,69,MMHG,,STUDY DAY 3,3,2002,3
NIDA-CTN-0002,VS,02_003614,ACTIVE,29,DBP,DIASTOLIC BLOOD PRESSURE,VITAL SIGNS FORM,SITTING,90,MMHG,90,90,MMHG,,STUDY DAY 4,4,2002,4
NIDA-CTN-0002,VS,02_003614,ACTIVE,35,DBP,DIASTOLIC BLOOD PRESSURE,VITAL SIGNS FORM,SITTING,70,MMHG,70,70,MMHG,,STUDY DAY 7,7,2002,7
NIDA-CTN-0002,VS,02_003614,ACTIVE,41,DBP,DIASTOLIC BLOOD PRESSURE,VITAL SIGNS FORM,SITTING,78,MMHG,78,78,MMHG,,STUDY DAY 8,8,2002,8
NIDA-CTN-0002,VS,02_003614,ACTIVE,47,DBP,DIASTOLIC BLOOD PRESSURE,VITAL SIGNS FORM,SITTING,82,MMHG,82,82,MMHG,,STUDY DAY 9,9,2002,9
NIDA-CTN-0002,VS,02_003614,ACTIVE,53,DBP,DIASTOLIC BLOOD PRESSURE,VITAL SIGNS FORM,SITTING,68,MMHG,68,68,MMHG,,STUDY DAY 10,10,2002,10
NIDA-CTN-0002,VS,02_003614,ACTIVE,59,DBP,DIASTOLIC BLOOD PRESSURE,VITAL SIGNS FORM,SITTING,68,MMHG,68,68,MMHG,,STUDY DAY 11,11,2002,11
NIDA-CTN-0002,VS,02_003614,ACTIVE,65,DBP,DIASTOLIC BLOOD PRESSURE,VITAL SIGNS FORM,SITTING,80,MMHG,80,80,MMHG,,STUDY DAY 14,14,2002,14
NIDA-CTN-0002,VS,02_003614,SCREENING,7,HEIGHT,HEIGHT,PHYSICAL EXAMINATION FORM,,66,INCHES,66,66,INCHES,Y,"BASELINE, ANY DAY PRIOR TO FIRST DOSE",0,2002,1
NIDA-CTN-0002,VS,02_003614,SCREENING,4,PULSE,PULSE,VITAL SIGNS FORM,SITTING,64,BEATS/MINUTE,64,64,BEATS/MINUTE,Y,"BASELINE, ANY DAY PRIOR TO FIRST DOSE",0,2002,-12
NIDA-CTN-0002,VS,02_003614,SCREENING,6,PULSE,PULSE,CLINICAL OPIATE WITHDRAWAL SCALE FORM,SITTING,64,BEATS/MINUTE,64,64,BEATS/MINUTE,Y,"BASELINE, ANY DAY PRIOR TO FIRST DOSE",0,2002,-12
NIDA-CTN-0002,VS,02_003614,ACTIVE,12,PULSE,PULSE,VITAL SIGNS FORM,SITTING,68,BEATS/MINUTE,68,68,BEATS/MINUTE,,STUDY DAY 1,1,2002,1
NIDA-CTN-0002,VS,02_003614,ACTIVE,14,PULSE,PULSE,CLINICAL OPIATE WITHDRAWAL SCALE FORM,SITTING,68,BEATS/MINUTE,68,68,BEATS/MINUTE,,STUDY DAY 1,1,2002,1
NIDA-CTN-0002,VS,02_003614,ACTIVE,18,PULSE,PULSE,VITAL SIGNS FORM,SITTING,66,BEATS/MINUTE,66,66,BEATS/MINUTE,,STUDY DAY 2,2,2002,2
NIDA-CTN-0002,VS,02_003614,ACTIVE,20,PULSE,PULSE,CLINICAL OPIATE WITHDRAWAL SCALE FORM,SITTING,66,BEATS/MINUTE,66,66,BEATS/MINUTE,,STUDY DAY 2,2,2002,2
NIDA-CTN-0002,VS,02_003614,ACTIVE,24,PULSE,PULSE,VITAL SIGNS FORM,SITTING,80,BEATS/MINUTE,80,80,BEATS/MINUTE,,STUDY DAY 3,3,2002,3
NIDA-CTN-0002,VS,02_003614,ACTIVE,26,PULSE,PULSE,CLINICAL OPIATE WITHDRAWAL SCALE FORM,SITTING,80,BEATS/MINUTE,80,80,BEATS/MINUTE,,STUDY DAY 3,3,2002,3
NIDA-CTN-0002,VS,02_003614,ACTIVE,30,PULSE,PULSE,VITAL SIGNS FORM,SITTING,64,BEATS/MINUTE,64,64,BEATS/MINUTE,,STUDY DAY 4,4,2002,4
NIDA-CTN-0002,VS,02_003614,ACTIVE,32,PULSE,PULSE,CLINICAL OPIATE WITHDRAWAL SCALE FORM,SITTING,64,BEATS/MINUTE,64,64,BEATS/MINUTE,,STUDY DAY 4,4,2002,4
NIDA-CTN-0002,VS,02_003614,ACTIVE,36,PULSE,PULSE,VITAL SIGNS FORM,SITTING,70,BEATS/MINUTE,70,70,BEATS/MINUTE,,STUDY DAY 7,7,2002,7
NIDA-CTN-0002,VS,02_003614,ACTIVE,38,PULSE,PULSE,CLINICAL OPIATE WITHDRAWAL SCALE FORM,SITTING,70,BEATS/MINUTE,70,70,BEATS/MINUTE,,STUDY DAY 7,7,2002,7
NIDA-CTN-0002,VS,02_003614,ACTIVE,42,PULSE,PULSE,VITAL SIGNS FORM,SITTING,68,BEATS/MINUTE,68,68,BEATS/MINUTE,,STUDY DAY 8,8,2002,8
NIDA-CTN-0002,VS,02_003614,ACTIVE,44,PULSE,PULSE,CLINICAL OPIATE WITHDRAWAL SCALE FORM,SITTING,68,BEATS/MINUTE,68,68,BEATS/MINUTE,,STUDY DAY 8,8,2002,8
NIDA-CTN-0002,VS,02_003614,ACTIVE,48,PULSE,PULSE,VITAL SIGNS FORM,SITTING,80,BEATS/MINUTE,80,80,BEATS/MINUTE,,STUDY DAY 9,9,2002,9
NIDA-CTN-0002,VS,02_003614,ACTIVE,50,PULSE,PULSE,CLINICAL OPIATE WITHDRAWAL SCALE FORM,SITTING,80,BEATS/MINUTE,80,80,BEATS/MINUTE,,STUDY DAY 9,9,2002,9
NIDA-CTN-0002,VS,02_003614,ACTIVE,54,PULSE,PULSE,VITAL SIGNS FORM,SITTING,62,BEATS/MINUTE,62,62,BEATS/MINUTE,,STUDY DAY 10,10,2002,10
NIDA-CTN-0002,VS,02_003614,ACTIVE,56,PULSE,PULSE,CLINICAL OPIATE WITHDRAWAL SCALE FORM,SITTING,62,BEATS/MINUTE,62,62,BEATS/MINUTE,,STUDY DAY 10,10,2002,10
NIDA-CTN-0002,VS,02_003614,ACTIVE,60,PULSE,PULSE,VITAL SIGNS FORM,SITTING,64,BEATS/MINUTE,64,64,BEATS/MINUTE,,STUDY DAY 11,11,2002,11
NIDA-CTN-0002,VS,02_003614,ACTIVE,62,PULSE,PULSE,CLINICAL OPIATE WITHDRAWAL SCALE FORM,SITTING,64,BEATS/MINUTE,64,64,BEATS/MINUTE,,STUDY DAY 11,11,2002,11
NIDA-CTN-0002,VS,02_003614,ACTIVE,66,PULSE,PULSE,VITAL SIGNS FORM,SITTING,80,BEATS/MINUTE,80,80,BEATS/MINUTE,,STUDY DAY 14,14,2002,14
NIDA-CTN-0002,VS,02_003614,ACTIVE,68,PULSE,PULSE,CLINICAL OPIATE WITHDRAWAL SCALE FORM,SITTING,80,BEATS/MINUTE,80,80,BEATS/MINUTE,,STUDY DAY 14,14,2002,14
NIDA-CTN-0002,VS,02_003614,FOLLOW-UP 1,69,PULSE,PULSE,CLINICAL OPIATE WITHDRAWAL SCALE FORM,SITTING,80,BEATS/MINUTE,80,80,BEATS/MINUTE,,FOLLOW-UP 1,15,2002,30
NIDA-CTN-0002,VS,02_003614,SCREENING,5,RESP,RESPIRATIONS,VITAL SIGNS FORM,SITTING,18,BREATHS/MIN,18,18,BREATHS/MIN,Y,"BASELINE, ANY DAY PRIOR TO FIRST DOSE",0,2002,-12
NIDA-CTN-0002,VS,02_003614,ACTIVE,13,RESP,RESPIRATIONS,VITAL SIGNS FORM,SITTING,18,BREATHS/MIN,18,18,BREATHS/MIN,,STUDY DAY 1,1,2002,1
NIDA-CTN-0002,VS,02_003614,ACTIVE,19,RESP,RESPIRATIONS,VITAL SIGNS FORM,SITTING,18,BREATHS/MIN,18,18,BREATHS/MIN,,STUDY DAY 2,2,2002,2
NIDA-CTN-0002,VS,02_003614,ACTIVE,25,RESP,RESPIRATIONS,VITAL SIGNS FORM,SITTING,18,BREATHS/MIN,18,18,BREATHS/MIN,,STUDY DAY 3,3,2002,3
NIDA-CTN-0002,VS,02_003614,ACTIVE,31,RESP,RESPIRATIONS,VITAL SIGNS FORM,SITTING,18,BREATHS/MIN,18,18,BREATHS/MIN,,STUDY DAY 4,4,2002,4
NIDA-CTN-0002,VS,02_003614,ACTIVE,37,RESP,RESPIRATIONS,VITAL SIGNS FORM,SITTING,18,BREATHS/MIN,18,18,BREATHS/MIN,,STUDY DAY 7,7,2002,7
NIDA-CTN-0002,VS,02_003614,ACTIVE,43,RESP,RESPIRATIONS,VITAL SIGNS FORM,SITTING,18,BREATHS/MIN,18,18,BREATHS/MIN,,STUDY DAY 8,8,2002,8
NIDA-CTN-0002,VS,02_003614,ACTIVE,49,RESP,RESPIRATIONS,VITAL SIGNS FORM,SITTING,18,BREATHS/MIN,18,18,BREATHS/MIN,,STUDY DAY 9,9,2002,9
NIDA-CTN-0002,VS,02_003614,ACTIVE,55,RESP,RESPIRATIONS,VITAL SIGNS FORM,SITTING,18,BREATHS/MIN,18,18,BREATHS/MIN,,STUDY DAY 10,10,2002,10
NIDA-CTN-0002,VS,02_003614,ACTIVE,61,RESP,RESPIRATIONS,VITAL SIGNS FORM,SITTING,18,BREATHS/MIN,18,18,BREATHS/MIN,,STUDY DAY 11,11,2002,11
NIDA-CTN-0002,VS,02_003614,ACTIVE,67,RESP,RESPIRATIONS,VITAL SIGNS FORM,SITTING,18,BREATHS/MIN,18,18,BREATHS/MIN,,STUDY DAY 14,14,2002,14
NIDA-CTN-0002,VS,02_003614,SCREENING,2,SBP,SYSTOLIC BLOOD PRESSURE,VITAL SIGNS FORM,SITTING,105,MMHG,105,105,MMHG,Y,"BASELINE, ANY DAY PRIOR TO FIRST DOSE",0,2002,-12
NIDA-CTN-0002,VS,02_003614,ACTIVE,10,SBP,SYSTOLIC BLOOD PRESSURE,VITAL SIGNS FORM,SITTING,106,MMHG,106,106,MMHG,,STUDY DAY 1,1,2002,1
NIDA-CTN-0002,VS,02_003614,ACTIVE,16,SBP,SYSTOLIC BLOOD PRESSURE,VITAL SIGNS FORM,SITTING,110,MMHG,110,110,MMHG,,STUDY DAY 2,2,2002,2
NIDA-CTN-0002,VS,02_003614,ACTIVE,22,SBP,SYSTOLIC BLOOD PRESSURE,VITAL SIGNS FORM,SITTING,110,MMHG,110,110,MMHG,,STUDY DAY 3,3,2002,3
NIDA-CTN-0002,VS,02_003614,ACTIVE,28,SBP,SYSTOLIC BLOOD PRESSURE,VITAL SIGNS FORM,SITTING,112,MMHG,112,112,MMHG,,STUDY DAY 4,4,2002,4
NIDA-CTN-0002,VS,02_003614,ACTIVE,34,SBP,SYSTOLIC BLOOD PRESSURE,VITAL SIGNS FORM,SITTING,108,MMHG,108,108,MMHG,,STUDY DAY 7,7,2002,7
NIDA-CTN-0002,VS,02_003614,ACTIVE,40,SBP,SYSTOLIC BLOOD PRESSURE,VITAL SIGNS FORM,SITTING,110,MMHG,110,110,MMHG,,STUDY DAY 8,8,2002,8
NIDA-CTN-0002,VS,02_003614,ACTIVE,46,SBP,SYSTOLIC BLOOD PRESSURE,VITAL SIGNS FORM,SITTING,110,MMHG,110,110,MMHG,,STUDY DAY 9,9,2002,9
NIDA-CTN-0002,VS,02_003614,ACTIVE,52,SBP,SYSTOLIC BLOOD PRESSURE,VITAL SIGNS FORM,SITTING,102,MMHG,102,102,MMHG,,STUDY DAY 10,10,2002,10
NIDA-CTN-0002,VS,02_003614,ACTIVE,58,SBP,SYSTOLIC BLOOD PRESSURE,VITAL SIGNS FORM,SITTING,118,MMHG,118,118,MMHG,,STUDY DAY 11,11,2002,11
NIDA-CTN-0002,VS,02_003614,ACTIVE,64,SBP,SYSTOLIC BLOOD PRESSURE,VITAL SIGNS FORM,SITTING,118,MMHG,118,118,MMHG,,STUDY DAY 14,14,2002,14
NIDA-CTN-0002,VS,02_003614,SCREENING,1,TEMP,TEMPERATURE,VITAL SIGNS FORM,SITTING,98.2,F,98.2,98.2,F,Y,"BASELINE, ANY DAY PRIOR TO FIRST DOSE",0,2002,-12
NIDA-CTN-0002,VS,02_003614,ACTIVE,9,TEMP,TEMPERATURE,VITAL SIGNS FORM,SITTING,97.6,F,97.6,97.6,F,,STUDY DAY 1,1,2002,1
NIDA-CTN-0002,VS,02_003614,ACTIVE,15,TEMP,TEMPERATURE,VITAL SIGNS FORM,SITTING,97.2,F,97.2,97.2,F,,STUDY DAY 2,2,2002,2
NIDA-CTN-0002,VS,02_003614,ACTIVE,21,TEMP,TEMPERATURE,VITAL SIGNS FORM,SITTING,99.0,F,99.0,99,F,,STUDY DAY 3,3,2002,3
NIDA-CTN-0002,VS,02_003614,ACTIVE,27,TEMP,TEMPERATURE,VITAL SIGNS FORM,SITTING,97.6,F,97.6,97.6,F,,STUDY DAY 4,4,2002,4
NIDA-CTN-0002,VS,02_003614,ACTIVE,33,TEMP,TEMPERATURE,VITAL SIGNS FORM,SITTING,98.4,F,98.4,98.4,F,,STUDY DAY 7,7,2002,7
NIDA-CTN-0002,VS,02_003614,ACTIVE,39,TEMP,TEMPERATURE,VITAL SIGNS FORM,SITTING,97.6,F,97.6,97.6,F,,STUDY DAY 8,8,2002,8
NIDA-CTN-0002,VS,02_003614,ACTIVE,45,TEMP,TEMPERATURE,VITAL SIGNS FORM,SITTING,98.0,F,98.0,98,F,,STUDY DAY 9,9,2002,9
NIDA-CTN-0002,VS,02_003614,ACTIVE,51,TEMP,TEMPERATURE,VITAL SIGNS FORM,SITTING,97.6,F,97.6,97.6,F,,STUDY DAY 10,10,2002,10
NIDA-CTN-0002,VS,02_003614,ACTIVE,57,TEMP,TEMPERATURE,VITAL SIGNS FORM,SITTING,98.6,F,98.6,98.6,F,,STUDY DAY 11,11,2002,11
NIDA-CTN-0002,VS,02_003614,ACTIVE,63,TEMP,TEMPERATURE,VITAL SIGNS FORM,SITTING,96.8,F,96.8,96.8,F,,STUDY DAY 14,14,2002,14
NIDA-CTN-0002,VS,02_003614,SCREENING,8,WEIGHT,WEIGHT,PHYSICAL EXAMINATION FORM,,130,POUNDS,130,130,POUNDS,Y,"BASELINE, ANY DAY PRIOR TO FIRST DOSE",0,2002,1
NIDA-CTN-0002,VS,02_004194,SCREENING,3,DBP,DIASTOLIC BLOOD PRESSURE,VITAL SIGNS FORM,SITTING,080,MMHG,080,80,MMHG,Y,"BASELINE, ANY DAY PRIOR TO FIRST DOSE",0,2001,1
NIDA-CTN-0002,VS,02_004194,ACTIVE,11,DBP,DIASTOLIC BLOOD PRESSURE,VITAL SIGNS FORM,SITTING,069,MMHG,069,69,MMHG,,STUDY DAY 1,1,2001,1
NIDA-CTN-0002,VS,02_004194,SCREENING,6,HEIGHT,HEIGHT,PHYSICAL EXAMINATION FORM,,75,INCHES,75,75,INCHES,Y,"BASELINE, ANY DAY PRIOR TO FIRST DOSE",0,2001,1
NIDA-CTN-0002,VS,02_004194,SCREENING,4,PULSE,PULSE,VITAL SIGNS FORM,SITTING,56,BEATS/MINUTE,56,56,BEATS/MINUTE,Y,"BASELINE, ANY DAY PRIOR TO FIRST DOSE",0,2001,1
NIDA-CTN-0002,VS,02_004194,SCREENING,8,PULSE,PULSE,CLINICAL OPIATE WITHDRAWAL SCALE FORM,SITTING,56,BEATS/MINUTE,56,56,BEATS/MINUTE,Y,"BASELINE, ANY DAY PRIOR TO FIRST DOSE",0,2001,1
NIDA-CTN-0002,VS,02_004194,ACTIVE,12,PULSE,PULSE,VITAL SIGNS FORM,SITTING,69,BEATS/MINUTE,69,69,BEATS/MINUTE,,STUDY DAY 1,1,2001,1
NIDA-CTN-0002,VS,02_004194,ACTIVE,14,PULSE,PULSE,CLINICAL OPIATE WITHDRAWAL SCALE FORM,SITTING,69,BEATS/MINUTE,69,69,BEATS/MINUTE,,STUDY DAY 1,1,2001,1
NIDA-CTN-0002,VS,02_004194,SCREENING,5,RESP,RESPIRATIONS,VITAL SIGNS FORM,SITTING,16,BREATHS/MIN,16,16,BREATHS/MIN,Y,"BASELINE, ANY DAY PRIOR TO FIRST DOSE",0,2001,1
NIDA-CTN-0002,VS,02_004194,ACTIVE,13,RESP,RESPIRATIONS,VITAL SIGNS FORM,SITTING,14,BREATHS/MIN,14,14,BREATHS/MIN,,STUDY DAY 1,1,2001,1
NIDA-CTN-0002,VS,02_004194,SCREENING,2,SBP,SYSTOLIC BLOOD PRESSURE,VITAL SIGNS FORM,SITTING,102,MMHG,102,102,MMHG,Y,"BASELINE, ANY DAY PRIOR TO FIRST DOSE",0,2001,1
NIDA-CTN-0002,VS,02_004194,ACTIVE,10,SBP,SYSTOLIC BLOOD PRESSURE,VITAL SIGNS FORM,SITTING,106,MMHG,106,106,MMHG,,STUDY DAY 1,1,2001,1
NIDA-CTN-0002,VS,02_004194,SCREENING,1,TEMP,TEMPERATURE,VITAL SIGNS FORM,SITTING,98.4,F,98.4,98.4,F,Y,"BASELINE, ANY DAY PRIOR TO FIRST DOSE",0,2001,1
NIDA-CTN-0002,VS,02_004194,ACTIVE,9,TEMP,TEMPERATURE,VITAL SIGNS FORM,SITTING,98.4,F,98.4,98.4,F,,STUDY DAY 1,1,2001,1
NIDA-CTN-0002,VS,02_004194,SCREENING,7,WEIGHT,WEIGHT,PHYSICAL EXAMINATION FORM,,171,POUNDS,171,171,POUNDS,Y,"BASELINE, ANY DAY PRIOR TO FIRST DOSE",0,2001,1
NIDA-CTN-0002,VS,02_004450,SCREENING,3,DBP,DIASTOLIC BLOOD PRESSURE,VITAL SIGNS FORM,SITTING,069,MMHG,069,69,MMHG,Y,"BASELINE, ANY DAY PRIOR TO FIRST DOSE",0,2001,1
NIDA-CTN-0002,VS,02_004450,ACTIVE,11,DBP,DIASTOLIC BLOOD PRESSURE,VITAL SIGNS FORM,SITTING,075,MMHG,075,75,MMHG,,STUDY DAY 2,2,2001,2
NIDA-CTN-0002,VS,02_004450,ACTIVE,17,DBP,DIASTOLIC BLOOD PRESSURE,VITAL SIGNS FORM,SITTING,064,MMHG,064,64,MMHG,,STUDY DAY 3,3,2001,3
NIDA-CTN-0002,VS,02_004450,ACTIVE,23,DBP,DIASTOLIC BLOOD PRESSURE,VITAL SIGNS FORM,SITTING,068,MMHG,068,68,MMHG,,STUDY DAY 4,4,2001,4
NIDA-CTN-0002,VS,02_004450,ACTIVE,29,DBP,DIASTOLIC BLOOD PRESSURE,VITAL SIGNS FORM,SITTING,054,MMHG,054,54,MMHG,,STUDY DAY 7,7,2001,7
NIDA-CTN-0002,VS,02_004450,ACTIVE,35,DBP,DIASTOLIC BLOOD PRESSURE,VITAL SIGNS FORM,SITTING,068,MMHG,068,68,MMHG,,STUDY DAY 8,8,2001,8
NIDA-CTN-0002,VS,02_004450,ACTIVE,41,DBP,DIASTOLIC BLOOD PRESSURE,VITAL SIGNS FORM,SITTING,067,MMHG,067,67,MMHG,,STUDY DAY 9,9,2001,9
NIDA-CTN-0002,VS,02_004450,ACTIVE,47,DBP,DIASTOLIC BLOOD PRESSURE,VITAL SIGNS FORM,SITTING,064,MMHG,064,64,MMHG,,STUDY DAY 10,10,2001,10
NIDA-CTN-0002,VS,02_004450,ACTIVE,53,DBP,DIASTOLIC BLOOD PRESSURE,VITAL SIGNS FORM,SITTING,063,MMHG,063,63,MMHG,,STUDY DAY 11,11,2001,11
NIDA-CTN-0002,VS,02_004450,ACTIVE,59,DBP,DIASTOLIC BLOOD PRESSURE,VITAL SIGNS FORM,SITTING,079,MMHG,079,79,MMHG,,STUDY DAY 14,14,2001,14
NIDA-CTN-0002,VS,02_004450,FOLLOW-UP 1,65,DBP,DIASTOLIC BLOOD PRESSURE,VITAL SIGNS FORM,SITTING,072,MMHG,072,72,MMHG,,FOLLOW-UP 1,15,2001,32
NIDA-CTN-0002,VS,02_004450,SCREENING,6,HEIGHT,HEIGHT,PHYSICAL EXAMINATION FORM,,72,INCHES,72,72,INCHES,Y,"BASELINE, ANY DAY PRIOR TO FIRST DOSE",0,2001,1
NIDA-CTN-0002,VS,02_004450,SCREENING,4,PULSE,PULSE,VITAL SIGNS FORM,SITTING,69,BEATS/MINUTE,69,69,BEATS/MINUTE,Y,"BASELINE, ANY DAY PRIOR TO FIRST DOSE",0,2001,1
NIDA-CTN-0002,VS,02_004450,SCREENING,8,PULSE,PULSE,CLINICAL OPIATE WITHDRAWAL SCALE FORM,SITTING,69,BEATS/MINUTE,69,69,BEATS/MINUTE,Y,"BASELINE, ANY DAY PRIOR TO FIRST DOSE",0,2001,1
NIDA-CTN-0002,VS,02_004450,ACTIVE,12,PULSE,PULSE,VITAL SIGNS FORM,SITTING,79,BEATS/MINUTE,79,79,BEATS/MINUTE,,STUDY DAY 2,2,2001,2
NIDA-CTN-0002,VS,02_004450,ACTIVE,14,PULSE,PULSE,CLINICAL OPIATE WITHDRAWAL SCALE FORM,SITTING,79,BEATS/MINUTE,79,79,BEATS/MINUTE,,STUDY DAY 2,2,2001,2
NIDA-CTN-0002,VS,02_004450,ACTIVE,18,PULSE,PULSE,VITAL SIGNS FORM,SITTING,71,BEATS/MINUTE,71,71,BEATS/MINUTE,,STUDY DAY 3,3,2001,3
NIDA-CTN-0002,VS,02_004450,ACTIVE,20,PULSE,PULSE,CLINICAL OPIATE WITHDRAWAL SCALE FORM,SITTING,71,BEATS/MINUTE,71,71,BEATS/MINUTE,,STUDY DAY 3,3,2001,3
NIDA-CTN-0002,VS,02_004450,ACTIVE,24,PULSE,PULSE,VITAL SIGNS FORM,SITTING,76,BEATS/MINUTE,76,76,BEATS/MINUTE,,STUDY DAY 4,4,2001,4
NIDA-CTN-0002,VS,02_004450,ACTIVE,26,PULSE,PULSE,CLINICAL OPIATE WITHDRAWAL SCALE FORM,SITTING,76,BEATS/MINUTE,76,76,BEATS/MINUTE,,STUDY DAY 4,4,2001,4
NIDA-CTN-0002,VS,02_004450,ACTIVE,30,PULSE,PULSE,VITAL SIGNS FORM,SITTING,68,BEATS/MINUTE,68,68,BEATS/MINUTE,,STUDY DAY 7,7,2001,7
NIDA-CTN-0002,VS,02_004450,ACTIVE,32,PULSE,PULSE,CLINICAL OPIATE WITHDRAWAL SCALE FORM,SITTING,68,BEATS/MINUTE,68,68,BEATS/MINUTE,,STUDY DAY 7,7,2001,7
NIDA-CTN-0002,VS,02_004450,ACTIVE,36,PULSE,PULSE,VITAL SIGNS FORM,SITTING,70,BEATS/MINUTE,70,70,BEATS/MINUTE,,STUDY DAY 8,8,2001,8
NIDA-CTN-0002,VS,02_004450,ACTIVE,38,PULSE,PULSE,CLINICAL OPIATE WITHDRAWAL SCALE FORM,SITTING,70,BEATS/MINUTE,70,70,BEATS/MINUTE,,STUDY DAY 8,8,2001,8
NIDA-CTN-0002,VS,02_004450,ACTIVE,42,PULSE,PULSE,VITAL SIGNS FORM,SITTING,57,BEATS/MINUTE,57,57,BEATS/MINUTE,,STUDY DAY 9,9,2001,9
NIDA-CTN-0002,VS,02_004450,ACTIVE,44,PULSE,PULSE,CLINICAL OPIATE WITHDRAWAL SCALE FORM,SITTING,57,BEATS/MINUTE,57,57,BEATS/MINUTE,,STUDY DAY 9,9,2001,9
NIDA-CTN-0002,VS,02_004450,ACTIVE,48,PULSE,PULSE,VITAL SIGNS FORM,SITTING,67,BEATS/MINUTE,67,67,BEATS/MINUTE,,STUDY DAY 10,10,2001,10
NIDA-CTN-0002,VS,02_004450,ACTIVE,50,PULSE,PULSE,CLINICAL OPIATE WITHDRAWAL SCALE FORM,SITTING,67,BEATS/MINUTE,67,67,BEATS/MINUTE,,STUDY DAY 10,10,2001,10
NIDA-CTN-0002,VS,02_004450,ACTIVE,54,PULSE,PULSE,VITAL SIGNS FORM,SITTING,64,BEATS/MINUTE,64,64,BEATS/MINUTE,,STUDY DAY 11,11,2001,11
NIDA-CTN-0002,VS,02_004450,ACTIVE,56,PULSE,PULSE,CLINICAL OPIATE WITHDRAWAL SCALE FORM,SITTING,64,BEATS/MINUTE,64,64,BEATS/MINUTE,,STUDY DAY 11,11,2001,11
NIDA-CTN-0002,VS,02_004450,ACTIVE,60,PULSE,PULSE,VITAL SIGNS FORM,SITTING,64,BEATS/MINUTE,64,64,BEATS/MINUTE,,STUDY DAY 14,14,2001,14
NIDA-CTN-0002,VS,02_004450,ACTIVE,62,PULSE,PULSE,CLINICAL OPIATE WITHDRAWAL SCALE FORM,SITTING,79,BEATS/MINUTE,79,79,BEATS/MINUTE,,STUDY DAY 14,14,2001,14
NIDA-CTN-0002,VS,02_004450,FOLLOW-UP 1,66,PULSE,PULSE,VITAL SIGNS FORM,SITTING,68,BEATS/MINUTE,68,68,BEATS/MINUTE,,FOLLOW-UP 1,15,2001,32
NIDA-CTN-0002,VS,02_004450,FOLLOW-UP 1,68,PULSE,PULSE,CLINICAL OPIATE WITHDRAWAL SCALE FORM,SITTING,68,BEATS/MINUTE,68,68,BEATS/MINUTE,,FOLLOW-UP 1,15,2001,32
NIDA-CTN-0002,VS,02_004450,SCREENING,5,RESP,RESPIRATIONS,VITAL SIGNS FORM,SITTING,12,BREATHS/MIN,12,12,BREATHS/MIN,Y,"BASELINE, ANY DAY PRIOR TO FIRST DOSE",0,2001,1
NIDA-CTN-0002,VS,02_004450,ACTIVE,13,RESP,RESPIRATIONS,VITAL SIGNS FORM,SITTING,14,BREATHS/MIN,14,14,BREATHS/MIN,,STUDY DAY 2,2,2001,2
NIDA-CTN-0002,VS,02_004450,ACTIVE,19,RESP,RESPIRATIONS,VITAL SIGNS FORM,SITTING,12,BREATHS/MIN,12,12,BREATHS/MIN,,STUDY DAY 3,3,2001,3
NIDA-CTN-0002,VS,02_004450,ACTIVE,25,RESP,RESPIRATIONS,VITAL SIGNS FORM,SITTING,14,BREATHS/MIN,14,14,BREATHS/MIN,,STUDY DAY 4,4,2001,4
NIDA-CTN-0002,VS,02_004450,ACTIVE,31,RESP,RESPIRATIONS,VITAL SIGNS FORM,SITTING,14,BREATHS/MIN,14,14,BREATHS/MIN,,STUDY DAY 7,7,2001,7
NIDA-CTN-0002,VS,02_004450,ACTIVE,37,RESP,RESPIRATIONS,VITAL SIGNS FORM,SITTING,12,BREATHS/MIN,12,12,BREATHS/MIN,,STUDY DAY 8,8,2001,8
NIDA-CTN-0002,VS,02_004450,ACTIVE,43,RESP,RESPIRATIONS,VITAL SIGNS FORM,SITTING,12,BREATHS/MIN,12,12,BREATHS/MIN,,STUDY DAY 9,9,2001,9
NIDA-CTN-0002,VS,02_004450,ACTIVE,49,RESP,RESPIRATIONS,VITAL SIGNS FORM,SITTING,14,BREATHS/MIN,14,14,BREATHS/MIN,,STUDY DAY 10,10,2001,10
NIDA-CTN-0002,VS,02_004450,ACTIVE,55,RESP,RESPIRATIONS,VITAL SIGNS FORM,SITTING,12,BREATHS/MIN,12,12,BREATHS/MIN,,STUDY DAY 11,11,2001,11
NIDA-CTN-0002,VS,02_004450,ACTIVE,61,RESP,RESPIRATIONS,VITAL SIGNS FORM,SITTING,14,BREATHS/MIN,14,14,BREATHS/MIN,,STUDY DAY 14,14,2001,14
NIDA-CTN-0002,VS,02_004450,FOLLOW-UP 1,67,RESP,RESPIRATIONS,VITAL SIGNS FORM,SITTING,16,BREATHS/MIN,16,16,BREATHS/MIN,,FOLLOW-UP 1,15,2001,32
NIDA-CTN-0002,VS,02_004450,SCREENING,2,SBP,SYSTOLIC BLOOD PRESSURE,VITAL SIGNS FORM,SITTING,124,MMHG,124,124,MMHG,Y,"BASELINE, ANY DAY PRIOR TO FIRST DOSE",0,2001,1
NIDA-CTN-0002,VS,02_004450,ACTIVE,10,SBP,SYSTOLIC BLOOD PRESSURE,VITAL SIGNS FORM,SITTING,132,MMHG,132,132,MMHG,,STUDY DAY 2,2,2001,2
NIDA-CTN-0002,VS,02_004450,ACTIVE,16,SBP,SYSTOLIC BLOOD PRESSURE,VITAL SIGNS FORM,SITTING,122,MMHG,122,122,MMHG,,STUDY DAY 3,3,2001,3
NIDA-CTN-0002,VS,02_004450,ACTIVE,22,SBP,SYSTOLIC BLOOD PRESSURE,VITAL SIGNS FORM,SITTING,121,MMHG,121,121,MMHG,,STUDY DAY 4,4,2001,4
NIDA-CTN-0002,VS,02_004450,ACTIVE,28,SBP,SYSTOLIC BLOOD PRESSURE,VITAL SIGNS FORM,SITTING,128,MMHG,128,128,MMHG,,STUDY DAY 7,7,2001,7
NIDA-CTN-0002,VS,02_004450,ACTIVE,34,SBP,SYSTOLIC BLOOD PRESSURE,VITAL SIGNS FORM,SITTING,120,MMHG,120,120,MMHG,,STUDY DAY 8,8,2001,8
NIDA-CTN-0002,VS,02_004450,ACTIVE,40,SBP,SYSTOLIC BLOOD PRESSURE,VITAL SIGNS FORM,SITTING,109,MMHG,109,109,MMHG,,STUDY DAY 9,9,2001,9
NIDA-CTN-0002,VS,02_004450,ACTIVE,46,SBP,SYSTOLIC BLOOD PRESSURE,VITAL SIGNS FORM,SITTING,106,MMHG,106,106,MMHG,,STUDY DAY 10,10,2001,10
NIDA-CTN-0002,VS,02_004450,ACTIVE,52,SBP,SYSTOLIC BLOOD PRESSURE,VITAL SIGNS FORM,SITTING,132,MMHG,132,132,MMHG,,STUDY DAY 11,11,2001,11
NIDA-CTN-0002,VS,02_004450,ACTIVE,58,SBP,SYSTOLIC BLOOD PRESSURE,VITAL SIGNS FORM,SITTING,140,MMHG,140,140,MMHG,,STUDY DAY 14,14,2001,14
NIDA-CTN-0002,VS,02_004450,FOLLOW-UP 1,64,SBP,SYSTOLIC BLOOD PRESSURE,VITAL SIGNS FORM,SITTING,125,MMHG,125,125,MMHG,,FOLLOW-UP 1,15,2001,32
NIDA-CTN-0002,VS,02_004450,SCREENING,1,TEMP,TEMPERATURE,VITAL SIGNS FORM,SITTING,97.2,F,97.2,97.2,F,Y,"BASELINE, ANY DAY PRIOR TO FIRST DOSE",0,2001,1
NIDA-CTN-0002,VS,02_004450,ACTIVE,9,TEMP,TEMPERATURE,VITAL SIGNS FORM,SITTING,98.1,F,98.1,98.1,F,,STUDY DAY 2,2,2001,2
NIDA-CTN-0002,VS,02_004450,ACTIVE,15,TEMP,TEMPERATURE,VITAL SIGNS FORM,SITTING,98.0,F,98.0,98,F,,STUDY DAY 3,3,2001,3
NIDA-CTN-0002,VS,02_004450,ACTIVE,21,TEMP,TEMPERATURE,VITAL SIGNS FORM,SITTING,98.4,F,98.4,98.4,F,,STUDY DAY 4,4,2001,4
NIDA-CTN-0002,VS,02_004450,ACTIVE,27,TEMP,TEMPERATURE,VITAL SIGNS FORM,SITTING,98.7,F,98.7,98.7,F,,STUDY DAY 7,7,2001,7
NIDA-CTN-0002,VS,02_004450,ACTIVE,33,TEMP,TEMPERATURE,VITAL SIGNS FORM,SITTING,97.9,F,97.9,97.9,F,,STUDY DAY 8,8,2001,8
NIDA-CTN-0002,VS,02_004450,ACTIVE,39,TEMP,TEMPERATURE,VITAL SIGNS FORM,SITTING,97.5,F,97.5,97.5,F,,STUDY DAY 9,9,2001,9
NIDA-CTN-0002,VS,02_004450,ACTIVE,45,TEMP,TEMPERATURE,VITAL SIGNS FORM,SITTING,97.3,F,97.3,97.3,F,,STUDY DAY 10,10,2001,10
NIDA-CTN-0002,VS,02_004450,ACTIVE,51,TEMP,TEMPERATURE,VITAL SIGNS FORM,SITTING,97.0,F,97.0,97,F,,STUDY DAY 11,11,2001,11
NIDA-CTN-0002,VS,02_004450,ACTIVE,57,TEMP,TEMPERATURE,VITAL SIGNS FORM,SITTING,98.1,F,98.1,98.1,F,,STUDY DAY 14,14,2001,14
NIDA-CTN-0002,VS,02_004450,FOLLOW-UP 1,63,TEMP,TEMPERATURE,VITAL SIGNS FORM,SITTING,96.9,F,96.9,96.9,F,,FOLLOW-UP 1,15,2001,32
NIDA-CTN-0002,VS,02_004450,SCREENING,7,WEIGHT,WEIGHT,PHYSICAL EXAMINATION FORM,,181,POUNDS,181,181,POUNDS,Y,"BASELINE, ANY DAY PRIOR TO FIRST DOSE",0,2001,1
NIDA-CTN-0002,VS,02_004483,SCREENING,3,DBP,DIASTOLIC BLOOD PRESSURE,VITAL SIGNS FORM,SITTING,094,MMHG,094,94,MMHG,Y,"BASELINE, ANY DAY PRIOR TO FIRST DOSE",0,2001,1
NIDA-CTN-0002,VS,02_004483,SCREENING,6,HEIGHT,HEIGHT,PHYSICAL EXAMINATION FORM,,62,INCHES,62,62,INCHES,Y,"BASELINE, ANY DAY PRIOR TO FIRST DOSE",0,2001,1
NIDA-CTN-0002,VS,02_004483,SCREENING,4,PULSE,PULSE,VITAL SIGNS FORM,SITTING,65,BEATS/MINUTE,65,65,BEATS/MINUTE,Y,"BASELINE, ANY DAY PRIOR TO FIRST DOSE",0,2001,1
NIDA-CTN-0002,VS,02_004483,SCREENING,8,PULSE,PULSE,CLINICAL OPIATE WITHDRAWAL SCALE FORM,SITTING,65,BEATS/MINUTE,65,65,BEATS/MINUTE,Y,"BASELINE, ANY DAY PRIOR TO FIRST DOSE",0,2001,1
NIDA-CTN-0002,VS,02_004483,SCREENING,5,RESP,RESPIRATIONS,VITAL SIGNS FORM,SITTING,16,BREATHS/MIN,16,16,BREATHS/MIN,Y,"BASELINE, ANY DAY PRIOR TO FIRST DOSE",0,2001,1
NIDA-CTN-0002,VS,02_004483,SCREENING,2,SBP,SYSTOLIC BLOOD PRESSURE,VITAL SIGNS FORM,SITTING,148,MMHG,148,148,MMHG,Y,"BASELINE, ANY DAY PRIOR TO FIRST DOSE",0,2001,1
NIDA-CTN-0002,VS,02_004483,SCREENING,1,TEMP,TEMPERATURE,VITAL SIGNS FORM,SITTING,98.6,F,98.6,98.6,F,Y,"BASELINE, ANY DAY PRIOR TO FIRST DOSE",0,2001,1
NIDA-CTN-0002,VS,02_004483,SCREENING,7,WEIGHT,WEIGHT,PHYSICAL EXAMINATION FORM,,100,POUNDS,100,100,POUNDS,Y,"BASELINE, ANY DAY PRIOR TO FIRST DOSE",0,2001,1
NIDA-CTN-0002,VS,02_005069,SCREENING,3,DBP,DIASTOLIC BLOOD PRESSURE,VITAL SIGNS FORM,SITTING,050,MMHG,050,50,MMHG,Y,"BASELINE, ANY DAY PRIOR TO FIRST DOSE",0,2001,-1
NIDA-CTN-0002,VS,02_005069,ACTIVE,11,DBP,DIASTOLIC BLOOD PRESSURE,VITAL SIGNS FORM,SITTING,072,MMHG,072,72,MMHG,,STUDY DAY 1,1,2001,1
NIDA-CTN-0002,VS,02_005069,ACTIVE,17,DBP,DIASTOLIC BLOOD PRESSURE,VITAL SIGNS FORM,SITTING,066,MMHG,066,66,MMHG,,STUDY DAY 2,2,2001,2
NIDA-CTN-0002,VS,02_005069,ACTIVE,23,DBP,DIASTOLIC BLOOD PRESSURE,VITAL SIGNS FORM,SITTING,076,MMHG,076,76,MMHG,,STUDY DAY 3,3,2001,3
NIDA-CTN-0002,VS,02_005069,ACTIVE,29,DBP,DIASTOLIC BLOOD PRESSURE,VITAL SIGNS FORM,SITTING,076,MMHG,076,76,MMHG,,STUDY DAY 4,4,2001,4
NIDA-CTN-0002,VS,02_005069,ACTIVE,35,DBP,DIASTOLIC BLOOD PRESSURE,VITAL SIGNS FORM,SITTING,062,MMHG,062,62,MMHG,,STUDY DAY 8,8,2001,8
NIDA-CTN-0002,VS,02_005069,ACTIVE,41,DBP,DIASTOLIC BLOOD PRESSURE,VITAL SIGNS FORM,SITTING,072,MMHG,072,72,MMHG,,STUDY DAY 9,9,2001,9
NIDA-CTN-0002,VS,02_005069,ACTIVE,47,DBP,DIASTOLIC BLOOD PRESSURE,VITAL SIGNS FORM,SITTING,058,MMHG,058,58,MMHG,,STUDY DAY 10,10,2001,10
NIDA-CTN-0002,VS,02_005069,ACTIVE,53,DBP,DIASTOLIC BLOOD PRESSURE,VITAL SIGNS FORM,SITTING,070,MMHG,070,70,MMHG,,STUDY DAY 11,11,2001,11
NIDA-CTN-0002,VS,02_005069,SCREENING,7,HEIGHT,HEIGHT,PHYSICAL EXAMINATION FORM,,70,INCHES,70,70,INCHES,Y,"BASELINE, ANY DAY PRIOR TO FIRST DOSE",0,2001,1
NIDA-CTN-0002,VS,02_005069,SCREENING,4,PULSE,PULSE,VITAL SIGNS FORM,SITTING,80,BEATS/MINUTE,80,80,BEATS/MINUTE,Y,"BASELINE, ANY DAY PRIOR TO FIRST DOSE",0,2001,-1
NIDA-CTN-0002,VS,02_005069,SCREENING,6,PULSE,PULSE,CLINICAL OPIATE WITHDRAWAL SCALE FORM,SITTING,80,BEATS/MINUTE,80,80,BEATS/MINUTE,Y,"BASELINE, ANY DAY PRIOR TO FIRST DOSE",0,2001,-1
NIDA-CTN-0002,VS,02_005069,ACTIVE,12,PULSE,PULSE,VITAL SIGNS FORM,SITTING,78,BEATS/MINUTE,78,78,BEATS/MINUTE,,STUDY DAY 1,1,2001,1
NIDA-CTN-0002,VS,02_005069,ACTIVE,14,PULSE,PULSE,CLINICAL OPIATE WITHDRAWAL SCALE FORM,SITTING,84,BEATS/MINUTE,84,84,BEATS/MINUTE,,STUDY DAY 1,1,2001,1
NIDA-CTN-0002,VS,02_005069,ACTIVE,18,PULSE,PULSE,VITAL SIGNS FORM,SITTING,100,BEATS/MINUTE,100,100,BEATS/MINUTE,,STUDY DAY 2,2,2001,2
NIDA-CTN-0002,VS,02_005069,ACTIVE,20,PULSE,PULSE,CLINICAL OPIATE WITHDRAWAL SCALE FORM,SITTING,100,BEATS/MINUTE,100,100,BEATS/MINUTE,,STUDY DAY 2,2,2001,2
NIDA-CTN-0002,VS,02_005069,ACTIVE,24,PULSE,PULSE,VITAL SIGNS FORM,SITTING,88,BEATS/MINUTE,88,88,BEATS/MINUTE,,STUDY DAY 3,3,2001,3
NIDA-CTN-0002,VS,02_005069,ACTIVE,26,PULSE,PULSE,CLINICAL OPIATE WITHDRAWAL SCALE FORM,SITTING,88,BEATS/MINUTE,88,88,BEATS/MINUTE,,STUDY DAY 3,3,2001,3
NIDA-CTN-0002,VS,02_005069,ACTIVE,30,PULSE,PULSE,VITAL SIGNS FORM,SITTING,92,BEATS/MINUTE,92,92,BEATS/MINUTE,,STUDY DAY 4,4,2001,4
NIDA-CTN-0002,VS,02_005069,ACTIVE,32,PULSE,PULSE,CLINICAL OPIATE WITHDRAWAL SCALE FORM,SITTING,92,BEATS/MINUTE,92,92,BEATS/MINUTE,,STUDY DAY 4,4,2001,4
NIDA-CTN-0002,VS,02_005069,ACTIVE,36,PULSE,PULSE,VITAL SIGNS FORM,SITTING,92,BEATS/MINUTE,92,92,BEATS/MINUTE,,STUDY DAY 8,8,2001,8
NIDA-CTN-0002,VS,02_005069,ACTIVE,38,PULSE,PULSE,CLINICAL OPIATE WITHDRAWAL SCALE FORM,SITTING,92,BEATS/MINUTE,92,92,BEATS/MINUTE,,STUDY DAY 8,8,2001,8
NIDA-CTN-0002,VS,02_005069,ACTIVE,42,PULSE,PULSE,VITAL SIGNS FORM,SITTING,86,BEATS/MINUTE,86,86,BEATS/MINUTE,,STUDY DAY 9,9,2001,9
NIDA-CTN-0002,VS,02_005069,ACTIVE,44,PULSE,PULSE,CLINICAL OPIATE WITHDRAWAL SCALE FORM,SITTING,86,BEATS/MINUTE,86,86,BEATS/MINUTE,,STUDY DAY 9,9,2001,9
NIDA-CTN-0002,VS,02_005069,ACTIVE,48,PULSE,PULSE,VITAL SIGNS FORM,SITTING,92,BEATS/MINUTE,92,92,BEATS/MINUTE,,STUDY DAY 10,10,2001,10
NIDA-CTN-0002,VS,02_005069,ACTIVE,50,PULSE,PULSE,CLINICAL OPIATE WITHDRAWAL SCALE FORM,SITTING,92,BEATS/MINUTE,92,92,BEATS/MINUTE,,STUDY DAY 10,10,2001,10
NIDA-CTN-0002,VS,02_005069,ACTIVE,54,PULSE,PULSE,VITAL SIGNS FORM,SITTING,88,BEATS/MINUTE,88,88,BEATS/MINUTE,,STUDY DAY 11,11,2001,11
NIDA-CTN-0002,VS,02_005069,ACTIVE,56,PULSE,PULSE,CLINICAL OPIATE WITHDRAWAL SCALE FORM,SITTING,88,BEATS/MINUTE,88,88,BEATS/MINUTE,,STUDY DAY 11,11,2001,11
NIDA-CTN-0002,VS,02_005069,FOLLOW-UP 1,57,PULSE,PULSE,CLINICAL OPIATE WITHDRAWAL SCALE FORM,SITTING,90,BEATS/MINUTE,90,90,BEATS/MINUTE,,FOLLOW-UP 1,15,2001,60
NIDA-CTN-0002,VS,02_005069,SCREENING,5,RESP,RESPIRATIONS,VITAL SIGNS FORM,SITTING,14,BREATHS/MIN,14,14,BREATHS/MIN,Y,"BASELINE, ANY DAY PRIOR TO FIRST DOSE",0,2001,-1
NIDA-CTN-0002,VS,02_005069,ACTIVE,13,RESP,RESPIRATIONS,VITAL SIGNS FORM,SITTING,16,BREATHS/MIN,16,16,BREATHS/MIN,,STUDY DAY 1,1,2001,1
NIDA-CTN-0002,VS,02_005069,ACTIVE,19,RESP,RESPIRATIONS,VITAL SIGNS FORM,SITTING,12,BREATHS/MIN,12,12,BREATHS/MIN,,STUDY DAY 2,2,2001,2
NIDA-CTN-0002,VS,02_005069,ACTIVE,25,RESP,RESPIRATIONS,VITAL SIGNS FORM,SITTING,12,BREATHS/MIN,12,12,BREATHS/MIN,,STUDY DAY 3,3,2001,3
NIDA-CTN-0002,VS,02_005069,ACTIVE,31,RESP,RESPIRATIONS,VITAL SIGNS FORM,SITTING,12,BREATHS/MIN,12,12,BREATHS/MIN,,STUDY DAY 4,4,2001,4
NIDA-CTN-0002,VS,02_005069,ACTIVE,37,RESP,RESPIRATIONS,VITAL SIGNS FORM,SITTING,12,BREATHS/MIN,12,12,BREATHS/MIN,,STUDY DAY 8,8,2001,8
NIDA-CTN-0002,VS,02_005069,ACTIVE,43,RESP,RESPIRATIONS,VITAL SIGNS FORM,SITTING,14,BREATHS/MIN,14,14,BREATHS/MIN,,STUDY DAY 9,9,2001,9
NIDA-CTN-0002,VS,02_005069,ACTIVE,49,RESP,RESPIRATIONS,VITAL SIGNS FORM,SITTING,12,BREATHS/MIN,12,12,BREATHS/MIN,,STUDY DAY 10,10,2001,10
NIDA-CTN-0002,VS,02_005069,ACTIVE,55,RESP,RESPIRATIONS,VITAL SIGNS FORM,SITTING,12,BREATHS/MIN,12,12,BREATHS/MIN,,STUDY DAY 11,11,2001,11
NIDA-CTN-0002,VS,02_005069,SCREENING,2,SBP,SYSTOLIC BLOOD PRESSURE,VITAL SIGNS FORM,SITTING,098,MMHG,098,98,MMHG,Y,"BASELINE, ANY DAY PRIOR TO FIRST DOSE",0,2001,-1
NIDA-CTN-0002,VS,02_005069,ACTIVE,10,SBP,SYSTOLIC BLOOD PRESSURE,VITAL SIGNS FORM,SITTING,128,MMHG,128,128,MMHG,,STUDY DAY 1,1,2001,1
NIDA-CTN-0002,VS,02_005069,ACTIVE,16,SBP,SYSTOLIC BLOOD PRESSURE,VITAL SIGNS FORM,SITTING,116,MMHG,116,116,MMHG,,STUDY DAY 2,2,2001,2
NIDA-CTN-0002,VS,02_005069,ACTIVE,22,SBP,SYSTOLIC BLOOD PRESSURE,VITAL SIGNS FORM,SITTING,126,MMHG,126,126,MMHG,,STUDY DAY 3,3,2001,3
NIDA-CTN-0002,VS,02_005069,ACTIVE,28,SBP,SYSTOLIC BLOOD PRESSURE,VITAL SIGNS FORM,SITTING,102,MMHG,102,102,MMHG,,STUDY DAY 4,4,2001,4
NIDA-CTN-0002,VS,02_005069,ACTIVE,34,SBP,SYSTOLIC BLOOD PRESSURE,VITAL SIGNS FORM,SITTING,112,MMHG,112,112,MMHG,,STUDY DAY 8,8,2001,8
NIDA-CTN-0002,VS,02_005069,ACTIVE,40,SBP,SYSTOLIC BLOOD PRESSURE,VITAL SIGNS FORM,SITTING,118,MMHG,118,118,MMHG,,STUDY DAY 9,9,2001,9
NIDA-CTN-0002,VS,02_005069,ACTIVE,46,SBP,SYSTOLIC BLOOD PRESSURE,VITAL SIGNS FORM,SITTING,118,MMHG,118,118,MMHG,,STUDY DAY 10,10,2001,10
NIDA-CTN-0002,VS,02_005069,ACTIVE,52,SBP,SYSTOLIC BLOOD PRESSURE,VITAL SIGNS FORM,SITTING,118,MMHG,118,118,MMHG,,STUDY DAY 11,11,2001,11
NIDA-CTN-0002,VS,02_005069,SCREENING,1,TEMP,TEMPERATURE,VITAL SIGNS FORM,SITTING,99.0,F,99.0,99,F,Y,"BASELINE, ANY DAY PRIOR TO FIRST DOSE",0,2001,-1
NIDA-CTN-0002,VS,02_005069,ACTIVE,9,TEMP,TEMPERATURE,VITAL SIGNS FORM,SITTING,98.0,F,98.0,98,F,,STUDY DAY 1,1,2001,1
NIDA-CTN-0002,VS,02_005069,ACTIVE,15,TEMP,TEMPERATURE,VITAL SIGNS FORM,SITTING,98.0,F,98.0,98,F,,STUDY DAY 2,2,2001,2
NIDA-CTN-0002,VS,02_005069,ACTIVE,21,TEMP,TEMPERATURE,VITAL SIGNS FORM,SITTING,98.0,F,98.0,98,F,,STUDY DAY 3,3,2001,3
NIDA-CTN-0002,VS,02_005069,ACTIVE,27,TEMP,TEMPERATURE,VITAL SIGNS FORM,SITTING,97.0,F,97.0,97,F,,STUDY DAY 4,4,2001,4
NIDA-CTN-0002,VS,02_005069,ACTIVE,33,TEMP,TEMPERATURE,VITAL SIGNS FORM,SITTING,98.0,F,98.0,98,F,,STUDY DAY 8,8,2001,8
NIDA-CTN-0002,VS,02_005069,ACTIVE,39,TEMP,TEMPERATURE,VITAL SIGNS FORM,SITTING,99.0,F,99.0,99,F,,STUDY DAY 9,9,2001,9
NIDA-CTN-0002,VS,02_005069,ACTIVE,45,TEMP,TEMPERATURE,VITAL SIGNS FORM,SITTING,99.0,F,99.0,99,F,,STUDY DAY 10,10,2001,10
NIDA-CTN-0002,VS,02_005069,ACTIVE,51,TEMP,TEMPERATURE,VITAL SIGNS FORM,SITTING,98.0,F,98.0,98,F,,STUDY DAY 11,11,2001,11
NIDA-CTN-0002,VS,02_005069,SCREENING,8,WEIGHT,WEIGHT,PHYSICAL EXAMINATION FORM,,148,POUNDS,148,148,POUNDS,Y,"BASELINE, ANY DAY PRIOR TO FIRST DOSE",0,2001,1
NIDA-CTN-0002,VS,02_005418,SCREENING,3,DBP,DIASTOLIC BLOOD PRESSURE,VITAL SIGNS FORM,SITTING,064,MMHG,064,64,MMHG,Y,"BASELINE, ANY DAY PRIOR TO FIRST DOSE",0,2001,-1
NIDA-CTN-0002,VS,02_005418,ACTIVE,11,DBP,DIASTOLIC BLOOD PRESSURE,VITAL SIGNS FORM,SITTING,060,MMHG,060,60,MMHG,,STUDY DAY 1,1,2001,1
NIDA-CTN-0002,VS,02_005418,ACTIVE,17,DBP,DIASTOLIC BLOOD PRESSURE,VITAL SIGNS FORM,SITTING,050,MMHG,050,50,MMHG,,STUDY DAY 2,2,2001,2
NIDA-CTN-0002,VS,02_005418,ACTIVE,23,DBP,DIASTOLIC BLOOD PRESSURE,VITAL SIGNS FORM,SITTING,066,MMHG,066,66,MMHG,,STUDY DAY 3,3,2001,3
NIDA-CTN-0002,VS,02_005418,ACTIVE,29,DBP,DIASTOLIC BLOOD PRESSURE,VITAL SIGNS FORM,SITTING,066,MMHG,066,66,MMHG,,STUDY DAY 6,6,2001,6
NIDA-CTN-0002,VS,02_005418,SCREENING,6,HEIGHT,HEIGHT,PHYSICAL EXAMINATION FORM,,65,INCHES,65,65,INCHES,Y,"BASELINE, ANY DAY PRIOR TO FIRST DOSE",0,2001,-1
NIDA-CTN-0002,VS,02_005418,SCREENING,4,PULSE,PULSE,VITAL SIGNS FORM,SITTING,72,BEATS/MINUTE,72,72,BEATS/MINUTE,Y,"BASELINE, ANY DAY PRIOR TO FIRST DOSE",0,2001,-1
NIDA-CTN-0002,VS,02_005418,SCREENING,8,PULSE,PULSE,CLINICAL OPIATE WITHDRAWAL SCALE FORM,SITTING,72,BEATS/MINUTE,72,72,BEATS/MINUTE,Y,"BASELINE, ANY DAY PRIOR TO FIRST DOSE",0,2001,-1
NIDA-CTN-0002,VS,02_005418,ACTIVE,12,PULSE,PULSE,VITAL SIGNS FORM,SITTING,76,BEATS/MINUTE,76,76,BEATS/MINUTE,,STUDY DAY 1,1,2001,1
NIDA-CTN-0002,VS,02_005418,ACTIVE,14,PULSE,PULSE,CLINICAL OPIATE WITHDRAWAL SCALE FORM,SITTING,76,BEATS/MINUTE,76,76,BEATS/MINUTE,,STUDY DAY 1,1,2001,1
NIDA-CTN-0002,VS,02_005418,ACTIVE,18,PULSE,PULSE,VITAL SIGNS FORM,SITTING,80,BEATS/MINUTE,80,80,BEATS/MINUTE,,STUDY DAY 2,2,2001,2
NIDA-CTN-0002,VS,02_005418,ACTIVE,20,PULSE,PULSE,CLINICAL OPIATE WITHDRAWAL SCALE FORM,SITTING,80,BEATS/MINUTE,80,80,BEATS/MINUTE,,STUDY DAY 2,2,2001,2
NIDA-CTN-0002,VS,02_005418,ACTIVE,24,PULSE,PULSE,VITAL SIGNS FORM,SITTING,84,BEATS/MINUTE,84,84,BEATS/MINUTE,,STUDY DAY 3,3,2001,3
NIDA-CTN-0002,VS,02_005418,ACTIVE,26,PULSE,PULSE,CLINICAL OPIATE WITHDRAWAL SCALE FORM,SITTING,84,BEATS/MINUTE,84,84,BEATS/MINUTE,,STUDY DAY 3,3,2001,3
NIDA-CTN-0002,VS,02_005418,ACTIVE,30,PULSE,PULSE,VITAL SIGNS FORM,SITTING,64,BEATS/MINUTE,64,64,BEATS/MINUTE,,STUDY DAY 6,6,2001,6
NIDA-CTN-0002,VS,02_005418,ACTIVE,32,PULSE,PULSE,CLINICAL OPIATE WITHDRAWAL SCALE FORM,SITTING,64,BEATS/MINUTE,64,64,BEATS/MINUTE,,STUDY DAY 6,6,2001,6
NIDA-CTN-0002,VS,02_005418,SCREENING,5,RESP,RESPIRATIONS,VITAL SIGNS FORM,SITTING,12,BREATHS/MIN,12,12,BREATHS/MIN,Y,"BASELINE, ANY DAY PRIOR TO FIRST DOSE",0,2001,-1
NIDA-CTN-0002,VS,02_005418,ACTIVE,13,RESP,RESPIRATIONS,VITAL SIGNS FORM,SITTING,16,BREATHS/MIN,16,16,BREATHS/MIN,,STUDY DAY 1,1,2001,1
NIDA-CTN-0002,VS,02_005418,ACTIVE,19,RESP,RESPIRATIONS,VITAL SIGNS FORM,SITTING,12,BREATHS/MIN,12,12,BREATHS/MIN,,STUDY DAY 2,2,2001,2
NIDA-CTN-0002,VS,02_005418,ACTIVE,25,RESP,RESPIRATIONS,VITAL SIGNS FORM,SITTING,20,BREATHS/MIN,20,20,BREATHS/MIN,,STUDY DAY 3,3,2001,3
NIDA-CTN-0002,VS,02_005418,ACTIVE,31,RESP,RESPIRATIONS,VITAL SIGNS FORM,SITTING,16,BREATHS/MIN,16,16,BREATHS/MIN,,STUDY DAY 6,6,2001,6
NIDA-CTN-0002,VS,02_005418,SCREENING,2,SBP,SYSTOLIC BLOOD PRESSURE,VITAL SIGNS FORM,SITTING,122,MMHG,122,122,MMHG,Y,"BASELINE, ANY DAY PRIOR TO FIRST DOSE",0,2001,-1
NIDA-CTN-0002,VS,02_005418,ACTIVE,10,SBP,SYSTOLIC BLOOD PRESSURE,VITAL SIGNS FORM,SITTING,120,MMHG,120,120,MMHG,,STUDY DAY 1,1,2001,1
NIDA-CTN-0002,VS,02_005418,ACTIVE,16,SBP,SYSTOLIC BLOOD PRESSURE,VITAL SIGNS FORM,SITTING,092,MMHG,092,92,MMHG,,STUDY DAY 2,2,2001,2
NIDA-CTN-0002,VS,02_005418,ACTIVE,22,SBP,SYSTOLIC BLOOD PRESSURE,VITAL SIGNS FORM,SITTING,096,MMHG,096,96,MMHG,,STUDY DAY 3,3,2001,3
NIDA-CTN-0002,VS,02_005418,ACTIVE,28,SBP,SYSTOLIC BLOOD PRESSURE,VITAL SIGNS FORM,SITTING,110,MMHG,110,110,MMHG,,STUDY DAY 6,6,2001,6
NIDA-CTN-0002,VS,02_005418,SCREENING,1,TEMP,TEMPERATURE,VITAL SIGNS FORM,SITTING,97.0,F,97.0,97,F,Y,"BASELINE, ANY DAY PRIOR TO FIRST DOSE",0,2001,-1
NIDA-CTN-0002,VS,02_005418,ACTIVE,9,TEMP,TEMPERATURE,VITAL SIGNS FORM,SITTING,97.0,F,97.0,97,F,,STUDY DAY 1,1,2001,1
NIDA-CTN-0002,VS,02_005418,ACTIVE,15,TEMP,TEMPERATURE,VITAL SIGNS FORM,SITTING,96.0,F,96.0,96,F,,STUDY DAY 2,2,2001,2
NIDA-CTN-0002,VS,02_005418,ACTIVE,21,TEMP,TEMPERATURE,VITAL SIGNS FORM,SITTING,96.0,F,96.0,96,F,,STUDY DAY 3,3,2001,3
NIDA-CTN-0002,VS,02_005418,ACTIVE,27,TEMP,TEMPERATURE,VITAL SIGNS FORM,SITTING,96.0,F,96.0,96,F,,STUDY DAY 6,6,2001,6
NIDA-CTN-0002,VS,02_005418,SCREENING,7,WEIGHT,WEIGHT,PHYSICAL EXAMINATION FORM,,143,POUNDS,143,143,POUNDS,Y,"BASELINE, ANY DAY PRIOR TO FIRST DOSE",0,2001,-1
NIDA-CTN-0002,VS,02_006479,SCREENING,3,DBP,DIASTOLIC BLOOD PRESSURE,VITAL SIGNS FORM,SITTING,072,MMHG,072,72,MMHG,Y,"BASELINE, ANY DAY PRIOR TO FIRST DOSE",0,2002,-1
NIDA-CTN-0002,VS,02_006479,ACTIVE,11,DBP,DIASTOLIC BLOOD PRESSURE,VITAL SIGNS FORM,SITTING,080,MMHG,080,80,MMHG,,STUDY DAY 1,1,2002,1
NIDA-CTN-0002,VS,02_006479,ACTIVE,17,DBP,DIASTOLIC BLOOD PRESSURE,VITAL SIGNS FORM,SITTING,082,MMHG,082,82,MMHG,,STUDY DAY 2,2,2002,2
NIDA-CTN-0002,VS,02_006479,ACTIVE,23,DBP,DIASTOLIC BLOOD PRESSURE,VITAL SIGNS FORM,SITTING,076,MMHG,076,76,MMHG,,STUDY DAY 3,3,2002,3
NIDA-CTN-0002,VS,02_006479,SCREENING,6,HEIGHT,HEIGHT,PHYSICAL EXAMINATION FORM,,78,INCHES,78,78,INCHES,Y,"BASELINE, ANY DAY PRIOR TO FIRST DOSE",0,2002,-1
NIDA-CTN-0002,VS,02_006479,SCREENING,4,PULSE,PULSE,VITAL SIGNS FORM,SITTING,80,BEATS/MINUTE,80,80,BEATS/MINUTE,Y,"BASELINE, ANY DAY PRIOR TO FIRST DOSE",0,2002,-1
NIDA-CTN-0002,VS,02_006479,SCREENING,8,PULSE,PULSE,CLINICAL OPIATE WITHDRAWAL SCALE FORM,SITTING,80,BEATS/MINUTE,80,80,BEATS/MINUTE,Y,"BASELINE, ANY DAY PRIOR TO FIRST DOSE",0,2002,-1
NIDA-CTN-0002,VS,02_006479,ACTIVE,12,PULSE,PULSE,VITAL SIGNS FORM,SITTING,84,BEATS/MINUTE,84,84,BEATS/MINUTE,,STUDY DAY 1,1,2002,1
NIDA-CTN-0002,VS,02_006479,ACTIVE,14,PULSE,PULSE,CLINICAL OPIATE WITHDRAWAL SCALE FORM,SITTING,84,BEATS/MINUTE,84,84,BEATS/MINUTE,,STUDY DAY 1,1,2002,1
NIDA-CTN-0002,VS,02_006479,ACTIVE,18,PULSE,PULSE,VITAL SIGNS FORM,SITTING,92,BEATS/MINUTE,92,92,BEATS/MINUTE,,STUDY DAY 2,2,2002,2
NIDA-CTN-0002,VS,02_006479,ACTIVE,20,PULSE,PULSE,CLINICAL OPIATE WITHDRAWAL SCALE FORM,SITTING,92,BEATS/MINUTE,92,92,BEATS/MINUTE,,STUDY DAY 2,2,2002,2
NIDA-CTN-0002,VS,02_006479,ACTIVE,24,PULSE,PULSE,VITAL SIGNS FORM,SITTING,88,BEATS/MINUTE,88,88,BEATS/MINUTE,,STUDY DAY 3,3,2002,3
NIDA-CTN-0002,VS,02_006479,ACTIVE,26,PULSE,PULSE,CLINICAL OPIATE WITHDRAWAL SCALE FORM,SITTING,88,BEATS/MINUTE,88,88,BEATS/MINUTE,,STUDY DAY 3,3,2002,3
NIDA-CTN-0002,VS,02_006479,SCREENING,5,RESP,RESPIRATIONS,VITAL SIGNS FORM,SITTING,16,BREATHS/MIN,16,16,BREATHS/MIN,Y,"BASELINE, ANY DAY PRIOR TO FIRST DOSE",0,2002,-1
NIDA-CTN-0002,VS,02_006479,ACTIVE,13,RESP,RESPIRATIONS,VITAL SIGNS FORM,SITTING,18,BREATHS/MIN,18,18,BREATHS/MIN,,STUDY DAY 1,1,2002,1
NIDA-CTN-0002,VS,02_006479,ACTIVE,19,RESP,RESPIRATIONS,VITAL SIGNS FORM,SITTING,18,BREATHS/MIN,18,18,BREATHS/MIN,,STUDY DAY 2,2,2002,2
NIDA-CTN-0002,VS,02_006479,ACTIVE,25,RESP,RESPIRATIONS,VITAL SIGNS FORM,SITTING,18,BREATHS/MIN,18,18,BREATHS/MIN,,STUDY DAY 3,3,2002,3
NIDA-CTN-0002,VS,02_006479,SCREENING,2,SBP,SYSTOLIC BLOOD PRESSURE,VITAL SIGNS FORM,SITTING,102,MMHG,102,102,MMHG,Y,"BASELINE, ANY DAY PRIOR TO FIRST DOSE",0,2002,-1
NIDA-CTN-0002,VS,02_006479,ACTIVE,10,SBP,SYSTOLIC BLOOD PRESSURE,VITAL SIGNS FORM,SITTING,112,MMHG,112,112,MMHG,,STUDY DAY 1,1,2002,1
NIDA-CTN-0002,VS,02_006479,ACTIVE,16,SBP,SYSTOLIC BLOOD PRESSURE,VITAL SIGNS FORM,SITTING,112,MMHG,112,112,MMHG,,STUDY DAY 2,2,2002,2
NIDA-CTN-0002,VS,02_006479,ACTIVE,22,SBP,SYSTOLIC BLOOD PRESSURE,VITAL SIGNS FORM,SITTING,110,MMHG,110,110,MMHG,,STUDY DAY 3,3,2002,3
NIDA-CTN-0002,VS,02_006479,SCREENING,1,TEMP,TEMPERATURE,VITAL SIGNS FORM,SITTING,98.8,F,98.8,98.8,F,Y,"BASELINE, ANY DAY PRIOR TO FIRST DOSE",0,2002,-1
NIDA-CTN-0002,VS,02_006479,ACTIVE,9,TEMP,TEMPERATURE,VITAL SIGNS FORM,SITTING,98.8,F,98.8,98.8,F,,STUDY DAY 1,1,2002,1
NIDA-CTN-0002,VS,02_006479,ACTIVE,15,TEMP,TEMPERATURE,VITAL SIGNS FORM,SITTING,99.0,F,99.0,99,F,,STUDY DAY 2,2,2002,2
NIDA-CTN-0002,VS,02_006479,ACTIVE,21,TEMP,TEMPERATURE,VITAL SIGNS FORM,SITTING,99.0,F,99.0,99,F,,STUDY DAY 3,3,2002,3
NIDA-CTN-0002,VS,02_006479,SCREENING,7,WEIGHT,WEIGHT,PHYSICAL EXAMINATION FORM,,174,POUNDS,174,174,POUNDS,Y,"BASELINE, ANY DAY PRIOR TO FIRST DOSE",0,2002,-1
NIDA-CTN-0002,VS,02_006759,SCREENING,4,DBP,DIASTOLIC BLOOD PRESSURE,VITAL SIGNS FORM,SITTING,102,MMHG,102,102,MMHG,Y,"BASELINE, ANY DAY PRIOR TO FIRST DOSE",0,2001,1
NIDA-CTN-0002,VS,02_006759,ACTIVE,11,DBP,DIASTOLIC BLOOD PRESSURE,VITAL SIGNS FORM,SITTING,104,MMHG,104,104,MMHG,,STUDY DAY 1,1,2001,1
NIDA-CTN-0002,VS,02_006759,ACTIVE,17,DBP,DIASTOLIC BLOOD PRESSURE,VITAL SIGNS FORM,SITTING,084,MMHG,084,84,MMHG,,STUDY DAY 2,2,2001,2
NIDA-CTN-0002,VS,02_006759,ACTIVE,23,DBP,DIASTOLIC BLOOD PRESSURE,VITAL SIGNS FORM,SITTING,094,MMHG,094,94,MMHG,,STUDY DAY 3,3,2001,3
NIDA-CTN-0002,VS,02_006759,ACTIVE,29,DBP,DIASTOLIC BLOOD PRESSURE,VITAL SIGNS FORM,SITTING,100,MMHG,100,100,MMHG,,STUDY DAY 6,6,2001,6
NIDA-CTN-0002,VS,02_006759,ACTIVE,35,DBP,DIASTOLIC BLOOD PRESSURE,VITAL SIGNS FORM,SITTING,108,MMHG,108,108,MMHG,,STUDY DAY 7,7,2001,7
NIDA-CTN-0002,VS,02_006759,ACTIVE,41,DBP,DIASTOLIC BLOOD PRESSURE,VITAL SIGNS FORM,SITTING,117,MMHG,117,117,MMHG,,STUDY DAY 8,8,2001,8
NIDA-CTN-0002,VS,02_006759,ACTIVE,47,DBP,DIASTOLIC BLOOD PRESSURE,VITAL SIGNS FORM,SITTING,119,MMHG,119,119,MMHG,,STUDY DAY 9,9,2001,9
NIDA-CTN-0002,VS,02_006759,ACTIVE,53,DBP,DIASTOLIC BLOOD PRESSURE,VITAL SIGNS FORM,SITTING,109,MMHG,109,109,MMHG,,STUDY DAY 10,10,2001,10
NIDA-CTN-0002,VS,02_006759,ACTIVE,59,DBP,DIASTOLIC BLOOD PRESSURE,VITAL SIGNS FORM,SITTING,104,MMHG,104,104,MMHG,,STUDY DAY 13,13,2001,13
NIDA-CTN-0002,VS,02_006759,ACTIVE,65,DBP,DIASTOLIC BLOOD PRESSURE,VITAL SIGNS FORM,SITTING,104,MMHG,104,104,MMHG,,STUDY DAY 14,14,2001,14
NIDA-CTN-0002,VS,02_006759,SCREENING,7,HEIGHT,HEIGHT,PHYSICAL EXAMINATION FORM,,69,INCHES,69,69,INCHES,Y,"BASELINE, ANY DAY PRIOR TO FIRST DOSE",0,2001,1
NIDA-CTN-0002,VS,02_006759,SCREENING,1,PULSE,PULSE,CLINICAL OPIATE WITHDRAWAL SCALE FORM,SITTING,58,BEATS/MINUTE,58,58,BEATS/MINUTE,Y,"BASELINE, ANY DAY PRIOR TO FIRST DOSE",0,2001,-1
NIDA-CTN-0002,VS,02_006759,SCREENING,5,PULSE,PULSE,VITAL SIGNS FORM,SITTING,58,BEATS/MINUTE,58,58,BEATS/MINUTE,Y,"BASELINE, ANY DAY PRIOR TO FIRST DOSE",0,2001,1
NIDA-CTN-0002,VS,02_006759,ACTIVE,12,PULSE,PULSE,VITAL SIGNS FORM,SITTING,57,BEATS/MINUTE,57,57,BEATS/MINUTE,,STUDY DAY 1,1,2001,1
NIDA-CTN-0002,VS,02_006759,ACTIVE,14,PULSE,PULSE,CLINICAL OPIATE WITHDRAWAL SCALE FORM,SITTING,57,BEATS/MINUTE,57,57,BEATS/MINUTE,,STUDY DAY 1,1,2001,1
NIDA-CTN-0002,VS,02_006759,ACTIVE,18,PULSE,PULSE,VITAL SIGNS FORM,SITTING,63,BEATS/MINUTE,63,63,BEATS/MINUTE,,STUDY DAY 2,2,2001,2
NIDA-CTN-0002,VS,02_006759,ACTIVE,20,PULSE,PULSE,CLINICAL OPIATE WITHDRAWAL SCALE FORM,SITTING,63,BEATS/MINUTE,63,63,BEATS/MINUTE,,STUDY DAY 2,2,2001,2
NIDA-CTN-0002,VS,02_006759,ACTIVE,24,PULSE,PULSE,VITAL SIGNS FORM,SITTING,70,BEATS/MINUTE,70,70,BEATS/MINUTE,,STUDY DAY 3,3,2001,3
NIDA-CTN-0002,VS,02_006759,ACTIVE,26,PULSE,PULSE,CLINICAL OPIATE WITHDRAWAL SCALE FORM,SITTING,70,BEATS/MINUTE,70,70,BEATS/MINUTE,,STUDY DAY 3,3,2001,3
NIDA-CTN-0002,VS,02_006759,ACTIVE,30,PULSE,PULSE,VITAL SIGNS FORM,SITTING,62,BEATS/MINUTE,62,62,BEATS/MINUTE,,STUDY DAY 6,6,2001,6
NIDA-CTN-0002,VS,02_006759,ACTIVE,32,PULSE,PULSE,CLINICAL OPIATE WITHDRAWAL SCALE FORM,SITTING,62,BEATS/MINUTE,62,62,BEATS/MINUTE,,STUDY DAY 6,6,2001,6
NIDA-CTN-0002,VS,02_006759,ACTIVE,36,PULSE,PULSE,VITAL SIGNS FORM,SITTING,66,BEATS/MINUTE,66,66,BEATS/MINUTE,,STUDY DAY 7,7,2001,7
NIDA-CTN-0002,VS,02_006759,ACTIVE,38,PULSE,PULSE,CLINICAL OPIATE WITHDRAWAL SCALE FORM,SITTING,66,BEATS/MINUTE,66,66,BEATS/MINUTE,,STUDY DAY 7,7,2001,7
NIDA-CTN-0002,VS,02_006759,ACTIVE,42,PULSE,PULSE,VITAL SIGNS FORM,SITTING,72,BEATS/MINUTE,72,72,BEATS/MINUTE,,STUDY DAY 8,8,2001,8
NIDA-CTN-0002,VS,02_006759,ACTIVE,44,PULSE,PULSE,CLINICAL OPIATE WITHDRAWAL SCALE FORM,SITTING,72,BEATS/MINUTE,72,72,BEATS/MINUTE,,STUDY DAY 8,8,2001,8
NIDA-CTN-0002,VS,02_006759,ACTIVE,48,PULSE,PULSE,VITAL SIGNS FORM,SITTING,97,BEATS/MINUTE,97,97,BEATS/MINUTE,,STUDY DAY 9,9,2001,9
NIDA-CTN-0002,VS,02_006759,ACTIVE,50,PULSE,PULSE,CLINICAL OPIATE WITHDRAWAL SCALE FORM,SITTING,97,BEATS/MINUTE,97,97,BEATS/MINUTE,,STUDY DAY 9,9,2001,9
NIDA-CTN-0002,VS,02_006759,ACTIVE,54,PULSE,PULSE,VITAL SIGNS FORM,SITTING,88,BEATS/MINUTE,88,88,BEATS/MINUTE,,STUDY DAY 10,10,2001,10
NIDA-CTN-0002,VS,02_006759,ACTIVE,56,PULSE,PULSE,CLINICAL OPIATE WITHDRAWAL SCALE FORM,SITTING,88,BEATS/MINUTE,88,88,BEATS/MINUTE,,STUDY DAY 10,10,2001,10
NIDA-CTN-0002,VS,02_006759,ACTIVE,60,PULSE,PULSE,VITAL SIGNS FORM,SITTING,72,BEATS/MINUTE,72,72,BEATS/MINUTE,,STUDY DAY 13,13,2001,13
NIDA-CTN-0002,VS,02_006759,ACTIVE,62,PULSE,PULSE,CLINICAL OPIATE WITHDRAWAL SCALE FORM,SITTING,72,BEATS/MINUTE,72,72,BEATS/MINUTE,,STUDY DAY 13,13,2001,13
NIDA-CTN-0002,VS,02_006759,ACTIVE,66,PULSE,PULSE,VITAL SIGNS FORM,SITTING,63,BEATS/MINUTE,63,63,BEATS/MINUTE,,STUDY DAY 14,14,2001,14
NIDA-CTN-0002,VS,02_006759,ACTIVE,68,PULSE,PULSE,CLINICAL OPIATE WITHDRAWAL SCALE FORM,SITTING,63,BEATS/MINUTE,63,63,BEATS/MINUTE,,STUDY DAY 14,14,2001,14
NIDA-CTN-0002,VS,02_006759,SCREENING,6,RESP,RESPIRATIONS,VITAL SIGNS FORM,SITTING,18,BREATHS/MIN,18,18,BREATHS/MIN,Y,"BASELINE, ANY DAY PRIOR TO FIRST DOSE",0,2001,1
NIDA-CTN-0002,VS,02_006759,ACTIVE,13,RESP,RESPIRATIONS,VITAL SIGNS FORM,SITTING,12,BREATHS/MIN,12,12,BREATHS/MIN,,STUDY DAY 1,1,2001,1
NIDA-CTN-0002,VS,02_006759,ACTIVE,19,RESP,RESPIRATIONS,VITAL SIGNS FORM,SITTING,14,BREATHS/MIN,14,14,BREATHS/MIN,,STUDY DAY 2,2,2001,2
NIDA-CTN-0002,VS,02_006759,ACTIVE,25,RESP,RESPIRATIONS,VITAL SIGNS FORM,SITTING,14,BREATHS/MIN,14,14,BREATHS/MIN,,STUDY DAY 3,3,2001,3
NIDA-CTN-0002,VS,02_006759,ACTIVE,31,RESP,RESPIRATIONS,VITAL SIGNS FORM,SITTING,12,BREATHS/MIN,12,12,BREATHS/MIN,,STUDY DAY 6,6,2001,6
NIDA-CTN-0002,VS,02_006759,ACTIVE,37,RESP,RESPIRATIONS,VITAL SIGNS FORM,SITTING,14,BREATHS/MIN,14,14,BREATHS/MIN,,STUDY DAY 7,7,2001,7
NIDA-CTN-0002,VS,02_006759,ACTIVE,43,RESP,RESPIRATIONS,VITAL SIGNS FORM,SITTING,14,BREATHS/MIN,14,14,BREATHS/MIN,,STUDY DAY 8,8,2001,8
NIDA-CTN-0002,VS,02_006759,ACTIVE,49,RESP,RESPIRATIONS,VITAL SIGNS FORM,SITTING,13,BREATHS/MIN,13,13,BREATHS/MIN,,STUDY DAY 9,9,2001,9
NIDA-CTN-0002,VS,02_006759,ACTIVE,55,RESP,RESPIRATIONS,VITAL SIGNS FORM,SITTING,14,BREATHS/MIN,14,14,BREATHS/MIN,,STUDY DAY 10,10,2001,10
NIDA-CTN-0002,VS,02_006759,ACTIVE,61,RESP,RESPIRATIONS,VITAL SIGNS FORM,SITTING,14,BREATHS/MIN,14,14,BREATHS/MIN,,STUDY DAY 13,13,2001,13
NIDA-CTN-0002,VS,02_006759,ACTIVE,67,RESP,RESPIRATIONS,VITAL SIGNS FORM,SITTING,14,BREATHS/MIN,14,14,BREATHS/MIN,,STUDY DAY 14,14,2001,14
NIDA-CTN-0002,VS,02_006759,SCREENING,3,SBP,SYSTOLIC BLOOD PRESSURE,VITAL SIGNS FORM,SITTING,144,MMHG,144,144,MMHG,Y,"BASELINE, ANY DAY PRIOR TO FIRST DOSE",0,2001,1
NIDA-CTN-0002,VS,02_006759,ACTIVE,10,SBP,SYSTOLIC BLOOD PRESSURE,VITAL SIGNS FORM,SITTING,146,MMHG,146,146,MMHG,,STUDY DAY 1,1,2001,1
NIDA-CTN-0002,VS,02_006759,ACTIVE,16,SBP,SYSTOLIC BLOOD PRESSURE,VITAL SIGNS FORM,SITTING,132,MMHG,132,132,MMHG,,STUDY DAY 2,2,2001,2
NIDA-CTN-0002,VS,02_006759,ACTIVE,22,SBP,SYSTOLIC BLOOD PRESSURE,VITAL SIGNS FORM,SITTING,138,MMHG,138,138,MMHG,,STUDY DAY 3,3,2001,3
NIDA-CTN-0002,VS,02_006759,ACTIVE,28,SBP,SYSTOLIC BLOOD PRESSURE,VITAL SIGNS FORM,SITTING,145,MMHG,145,145,MMHG,,STUDY DAY 6,6,2001,6
NIDA-CTN-0002,VS,02_006759,ACTIVE,34,SBP,SYSTOLIC BLOOD PRESSURE,VITAL SIGNS FORM,SITTING,160,MMHG,160,160,MMHG,,STUDY DAY 7,7,2001,7
NIDA-CTN-0002,VS,02_006759,ACTIVE,40,SBP,SYSTOLIC BLOOD PRESSURE,VITAL SIGNS FORM,SITTING,156,MMHG,156,156,MMHG,,STUDY DAY 8,8,2001,8
NIDA-CTN-0002,VS,02_006759,ACTIVE,46,SBP,SYSTOLIC BLOOD PRESSURE,VITAL SIGNS FORM,SITTING,169,MMHG,169,169,MMHG,,STUDY DAY 9,9,2001,9
NIDA-CTN-0002,VS,02_006759,ACTIVE,52,SBP,SYSTOLIC BLOOD PRESSURE,VITAL SIGNS FORM,SITTING,146,MMHG,146,146,MMHG,,STUDY DAY 10,10,2001,10
NIDA-CTN-0002,VS,02_006759,ACTIVE,58,SBP,SYSTOLIC BLOOD PRESSURE,VITAL SIGNS FORM,SITTING,151,MMHG,151,151,MMHG,,STUDY DAY 13,13,2001,13
NIDA-CTN-0002,VS,02_006759,ACTIVE,64,SBP,SYSTOLIC BLOOD PRESSURE,VITAL SIGNS FORM,SITTING,145,MMHG,145,145,MMHG,,STUDY DAY 14,14,2001,14
NIDA-CTN-0002,VS,02_006759,SCREENING,2,TEMP,TEMPERATURE,VITAL SIGNS FORM,SITTING,98.4,F,98.4,98.4,F,Y,"BASELINE, ANY DAY PRIOR TO FIRST DOSE",0,2001,1
NIDA-CTN-0002,VS,02_006759,ACTIVE,9,TEMP,TEMPERATURE,VITAL SIGNS FORM,SITTING,98.4,F,98.4,98.4,F,,STUDY DAY 1,1,2001,1
NIDA-CTN-0002,VS,02_006759,ACTIVE,15,TEMP,TEMPERATURE,VITAL SIGNS FORM,SITTING,99.0,F,99.0,99,F,,STUDY DAY 2,2,2001,2
NIDA-CTN-0002,VS,02_006759,ACTIVE,21,TEMP,TEMPERATURE,VITAL SIGNS FORM,SITTING,99.0,F,99.0,99,F,,STUDY DAY 3,3,2001,3
NIDA-CTN-0002,VS,02_006759,ACTIVE,27,TEMP,TEMPERATURE,VITAL SIGNS FORM,SITTING,98.8,F,98.8,98.8,F,,STUDY DAY 6,6,2001,6
NIDA-CTN-0002,VS,02_006759,ACTIVE,33,TEMP,TEMPERATURE,VITAL SIGNS FORM,SITTING,98.8,F,98.8,98.8,F,,STUDY DAY 7,7,2001,7
NIDA-CTN-0002,VS,02_006759,ACTIVE,39,TEMP,TEMPERATURE,VITAL SIGNS FORM,SITTING,98.8,F,98.8,98.8,F,,STUDY DAY 8,8,2001,8
NIDA-CTN-0002,VS,02_006759,ACTIVE,45,TEMP,TEMPERATURE,VITAL SIGNS FORM,SITTING,98.8,F,98.8,98.8,F,,STUDY DAY 9,9,2001,9
NIDA-CTN-0002,VS,02_006759,ACTIVE,51,TEMP,TEMPERATURE,VITAL SIGNS FORM,SITTING,98.8,F,98.8,98.8,F,,STUDY DAY 10,10,2001,10
NIDA-CTN-0002,VS,02_006759,ACTIVE,57,TEMP,TEMPERATURE,VITAL SIGNS FORM,SITTING,98.8,F,98.8,98.8,F,,STUDY DAY 13,13,2001,13
NIDA-CTN-0002,VS,02_006759,ACTIVE,63,TEMP,TEMPERATURE,VITAL SIGNS FORM,SITTING,98.8,F,98.8,98.8,F,,STUDY DAY 14,14,2001,14
NIDA-CTN-0002,VS,02_006759,SCREENING,8,WEIGHT,WEIGHT,PHYSICAL EXAMINATION FORM,,206,POUNDS,206,206,POUNDS,Y,"BASELINE, ANY DAY PRIOR TO FIRST DOSE",0,2001,1
NIDA-CTN-0002,VS,02_007189,SCREENING,3,DBP,DIASTOLIC BLOOD PRESSURE,VITAL SIGNS FORM,SITTING,072,MMHG,072,72,MMHG,Y,"BASELINE, ANY DAY PRIOR TO FIRST DOSE",0,2001,-7
NIDA-CTN-0002,VS,02_007189,ACTIVE,11,DBP,DIASTOLIC BLOOD PRESSURE,VITAL SIGNS FORM,SITTING,078,MMHG,078,78,MMHG,,STUDY DAY 1,1,2001,1
NIDA-CTN-0002,VS,02_007189,ACTIVE,17,DBP,DIASTOLIC BLOOD PRESSURE,VITAL SIGNS FORM,SITTING,088,MMHG,088,88,MMHG,,STUDY DAY 2,2,2001,2
NIDA-CTN-0002,VS,02_007189,ACTIVE,23,DBP,DIASTOLIC BLOOD PRESSURE,VITAL SIGNS FORM,SITTING,080,MMHG,080,80,MMHG,,STUDY DAY 3,3,2001,3
NIDA-CTN-0002,VS,02_007189,ACTIVE,29,DBP,DIASTOLIC BLOOD PRESSURE,VITAL SIGNS FORM,SITTING,074,MMHG,074,74,MMHG,,STUDY DAY 4,4,2001,4
NIDA-CTN-0002,VS,02_007189,ACTIVE,35,DBP,DIASTOLIC BLOOD PRESSURE,VITAL SIGNS FORM,SITTING,088,MMHG,088,88,MMHG,,STUDY DAY 7,7,2001,7
NIDA-CTN-0002,VS,02_007189,ACTIVE,41,DBP,DIASTOLIC BLOOD PRESSURE,VITAL SIGNS FORM,SITTING,080,MMHG,080,80,MMHG,,STUDY DAY 8,8,2001,8
NIDA-CTN-0002,VS,02_007189,ACTIVE,47,DBP,DIASTOLIC BLOOD PRESSURE,VITAL SIGNS FORM,SITTING,096,MMHG,096,96,MMHG,,STUDY DAY 9,9,2001,9
NIDA-CTN-0002,VS,02_007189,ACTIVE,53,DBP,DIASTOLIC BLOOD PRESSURE,VITAL SIGNS FORM,SITTING,080,MMHG,080,80,MMHG,,STUDY DAY 10,10,2001,10
NIDA-CTN-0002,VS,02_007189,ACTIVE,60,DBP,DIASTOLIC BLOOD PRESSURE,VITAL SIGNS FORM,SITTING,082,MMHG,082,82,MMHG,,STUDY DAY 14,14,2001,14
NIDA-CTN-0002,VS,02_007189,FOLLOW-UP 1,66,DBP,DIASTOLIC BLOOD PRESSURE,VITAL SIGNS FORM,SITTING,096,MMHG,096,96,MMHG,,FOLLOW-UP 1,15,2001,30
NIDA-CTN-0002,VS,02_007189,FOLLOW-UP 2,72,DBP,DIASTOLIC BLOOD PRESSURE,VITAL SIGNS FORM,SITTING,090,MMHG,090,90,MMHG,,FOLLOW-UP 2,16,2001,109
NIDA-CTN-0002,VS,02_007189,SCREENING,7,HEIGHT,HEIGHT,PHYSICAL EXAMINATION FORM,,67,INCHES,67,67,INCHES,Y,"BASELINE, ANY DAY PRIOR TO FIRST DOSE",0,2001,1
NIDA-CTN-0002,VS,02_007189,SCREENING,4,PULSE,PULSE,VITAL SIGNS FORM,SITTING,80,BEATS/MINUTE,80,80,BEATS/MINUTE,Y,"BASELINE, ANY DAY PRIOR TO FIRST DOSE",0,2001,-7
NIDA-CTN-0002,VS,02_007189,SCREENING,6,PULSE,PULSE,CLINICAL OPIATE WITHDRAWAL SCALE FORM,SITTING,80,BEATS/MINUTE,80,80,BEATS/MINUTE,Y,"BASELINE, ANY DAY PRIOR TO FIRST DOSE",0,2001,-7
NIDA-CTN-0002,VS,02_007189,ACTIVE,12,PULSE,PULSE,VITAL SIGNS FORM,SITTING,80,BEATS/MINUTE,80,80,BEATS/MINUTE,,STUDY DAY 1,1,2001,1
NIDA-CTN-0002,VS,02_007189,ACTIVE,14,PULSE,PULSE,CLINICAL OPIATE WITHDRAWAL SCALE FORM,SITTING,80,BEATS/MINUTE,80,80,BEATS/MINUTE,,STUDY DAY 1,1,2001,1
NIDA-CTN-0002,VS,02_007189,ACTIVE,18,PULSE,PULSE,VITAL SIGNS FORM,SITTING,76,BEATS/MINUTE,76,76,BEATS/MINUTE,,STUDY DAY 2,2,2001,2
NIDA-CTN-0002,VS,02_007189,ACTIVE,20,PULSE,PULSE,CLINICAL OPIATE WITHDRAWAL SCALE FORM,SITTING,76,BEATS/MINUTE,76,76,BEATS/MINUTE,,STUDY DAY 2,2,2001,2
NIDA-CTN-0002,VS,02_007189,ACTIVE,24,PULSE,PULSE,VITAL SIGNS FORM,SITTING,72,BEATS/MINUTE,72,72,BEATS/MINUTE,,STUDY DAY 3,3,2001,3
NIDA-CTN-0002,VS,02_007189,ACTIVE,26,PULSE,PULSE,CLINICAL OPIATE WITHDRAWAL SCALE FORM,SITTING,72,BEATS/MINUTE,72,72,BEATS/MINUTE,,STUDY DAY 3,3,2001,3
NIDA-CTN-0002,VS,02_007189,ACTIVE,30,PULSE,PULSE,VITAL SIGNS FORM,SITTING,92,BEATS/MINUTE,92,92,BEATS/MINUTE,,STUDY DAY 4,4,2001,4
NIDA-CTN-0002,VS,02_007189,ACTIVE,32,PULSE,PULSE,CLINICAL OPIATE WITHDRAWAL SCALE FORM,SITTING,92,BEATS/MINUTE,92,92,BEATS/MINUTE,,STUDY DAY 4,4,2001,4
NIDA-CTN-0002,VS,02_007189,ACTIVE,36,PULSE,PULSE,VITAL SIGNS FORM,SITTING,76,BEATS/MINUTE,76,76,BEATS/MINUTE,,STUDY DAY 7,7,2001,7
NIDA-CTN-0002,VS,02_007189,ACTIVE,38,PULSE,PULSE,CLINICAL OPIATE WITHDRAWAL SCALE FORM,SITTING,76,BEATS/MINUTE,76,76,BEATS/MINUTE,,STUDY DAY 7,7,2001,7
NIDA-CTN-0002,VS,02_007189,ACTIVE,42,PULSE,PULSE,VITAL SIGNS FORM,SITTING,80,BEATS/MINUTE,80,80,BEATS/MINUTE,,STUDY DAY 8,8,2001,8
NIDA-CTN-0002,VS,02_007189,ACTIVE,44,PULSE,PULSE,CLINICAL OPIATE WITHDRAWAL SCALE FORM,SITTING,80,BEATS/MINUTE,80,80,BEATS/MINUTE,,STUDY DAY 8,8,2001,8
NIDA-CTN-0002,VS,02_007189,ACTIVE,48,PULSE,PULSE,VITAL SIGNS FORM,SITTING,80,BEATS/MINUTE,80,80,BEATS/MINUTE,,STUDY DAY 9,9,2001,9
NIDA-CTN-0002,VS,02_007189,ACTIVE,50,PULSE,PULSE,CLINICAL OPIATE WITHDRAWAL SCALE FORM,SITTING,80,BEATS/MINUTE,80,80,BEATS/MINUTE,,STUDY DAY 9,9,2001,9
NIDA-CTN-0002,VS,02_007189,ACTIVE,54,PULSE,PULSE,VITAL SIGNS FORM,SITTING,80,BEATS/MINUTE,80,80,BEATS/MINUTE,,STUDY DAY 10,10,2001,10
NIDA-CTN-0002,VS,02_007189,ACTIVE,56,PULSE,PULSE,CLINICAL OPIATE WITHDRAWAL SCALE FORM,SITTING,80,BEATS/MINUTE,80,80,BEATS/MINUTE,,STUDY DAY 10,10,2001,10
NIDA-CTN-0002,VS,02_007189,ACTIVE,57,PULSE,PULSE,CLINICAL OPIATE WITHDRAWAL SCALE FORM,SITTING,80,BEATS/MINUTE,80,80,BEATS/MINUTE,,STUDY DAY 11,11,2001,11
NIDA-CTN-0002,VS,02_007189,ACTIVE,61,PULSE,PULSE,VITAL SIGNS FORM,SITTING,79,BEATS/MINUTE,79,79,BEATS/MINUTE,,STUDY DAY 14,14,2001,14
NIDA-CTN-0002,VS,02_007189,ACTIVE,63,PULSE,PULSE,CLINICAL OPIATE WITHDRAWAL SCALE FORM,SITTING,79,BEATS/MINUTE,79,79,BEATS/MINUTE,,STUDY DAY 14,14,2001,14
NIDA-CTN-0002,VS,02_007189,FOLLOW-UP 1,67,PULSE,PULSE,VITAL SIGNS FORM,SITTING,84,BEATS/MINUTE,84,84,BEATS/MINUTE,,FOLLOW-UP 1,15,2001,30
NIDA-CTN-0002,VS,02_007189,FOLLOW-UP 1,69,PULSE,PULSE,CLINICAL OPIATE WITHDRAWAL SCALE FORM,SITTING,84,BEATS/MINUTE,84,84,BEATS/MINUTE,,FOLLOW-UP 1,15,2001,30
NIDA-CTN-0002,VS,02_007189,FOLLOW-UP 2,73,PULSE,PULSE,VITAL SIGNS FORM,SITTING,76,BEATS/MINUTE,76,76,BEATS/MINUTE,,FOLLOW-UP 2,16,2001,109
NIDA-CTN-0002,VS,02_007189,SCREENING,5,RESP,RESPIRATIONS,VITAL SIGNS FORM,SITTING,16,BREATHS/MIN,16,16,BREATHS/MIN,Y,"BASELINE, ANY DAY PRIOR TO FIRST DOSE",0,2001,-7
NIDA-CTN-0002,VS,02_007189,ACTIVE,13,RESP,RESPIRATIONS,VITAL SIGNS FORM,SITTING,16,BREATHS/MIN,16,16,BREATHS/MIN,,STUDY DAY 1,1,2001,1
NIDA-CTN-0002,VS,02_007189,ACTIVE,19,RESP,RESPIRATIONS,VITAL SIGNS FORM,SITTING,16,BREATHS/MIN,16,16,BREATHS/MIN,,STUDY DAY 2,2,2001,2
NIDA-CTN-0002,VS,02_007189,ACTIVE,25,RESP,RESPIRATIONS,VITAL SIGNS FORM,SITTING,16,BREATHS/MIN,16,16,BREATHS/MIN,,STUDY DAY 3,3,2001,3
NIDA-CTN-0002,VS,02_007189,ACTIVE,31,RESP,RESPIRATIONS,VITAL SIGNS FORM,SITTING,20,BREATHS/MIN,20,20,BREATHS/MIN,,STUDY DAY 4,4,2001,4
NIDA-CTN-0002,VS,02_007189,ACTIVE,37,RESP,RESPIRATIONS,VITAL SIGNS FORM,SITTING,18,BREATHS/MIN,18,18,BREATHS/MIN,,STUDY DAY 7,7,2001,7
NIDA-CTN-0002,VS,02_007189,ACTIVE,43,RESP,RESPIRATIONS,VITAL SIGNS FORM,SITTING,17,BREATHS/MIN,17,17,BREATHS/MIN,,STUDY DAY 8,8,2001,8
NIDA-CTN-0002,VS,02_007189,ACTIVE,49,RESP,RESPIRATIONS,VITAL SIGNS FORM,SITTING,18,BREATHS/MIN,18,18,BREATHS/MIN,,STUDY DAY 9,9,2001,9
NIDA-CTN-0002,VS,02_007189,ACTIVE,55,RESP,RESPIRATIONS,VITAL SIGNS FORM,SITTING,1,BREATHS/MIN,1,1,BREATHS/MIN,,STUDY DAY 10,10,2001,10
NIDA-CTN-0002,VS,02_007189,ACTIVE,62,RESP,RESPIRATIONS,VITAL SIGNS FORM,SITTING,17,BREATHS/MIN,17,17,BREATHS/MIN,,STUDY DAY 14,14,2001,14
NIDA-CTN-0002,VS,02_007189,FOLLOW-UP 1,68,RESP,RESPIRATIONS,VITAL SIGNS FORM,SITTING,16,BREATHS/MIN,16,16,BREATHS/MIN,,FOLLOW-UP 1,15,2001,30
NIDA-CTN-0002,VS,02_007189,FOLLOW-UP 2,74,RESP,RESPIRATIONS,VITAL SIGNS FORM,SITTING,18,BREATHS/MIN,18,18,BREATHS/MIN,,FOLLOW-UP 2,16,2001,109
NIDA-CTN-0002,VS,02_007189,SCREENING,2,SBP,SYSTOLIC BLOOD PRESSURE,VITAL SIGNS FORM,SITTING,128,MMHG,128,128,MMHG,Y,"BASELINE, ANY DAY PRIOR TO FIRST DOSE",0,2001,-7
NIDA-CTN-0002,VS,02_007189,ACTIVE,10,SBP,SYSTOLIC BLOOD PRESSURE,VITAL SIGNS FORM,SITTING,110,MMHG,110,110,MMHG,,STUDY DAY 1,1,2001,1
NIDA-CTN-0002,VS,02_007189,ACTIVE,16,SBP,SYSTOLIC BLOOD PRESSURE,VITAL SIGNS FORM,SITTING,138,MMHG,138,138,MMHG,,STUDY DAY 2,2,2001,2
NIDA-CTN-0002,VS,02_007189,ACTIVE,22,SBP,SYSTOLIC BLOOD PRESSURE,VITAL SIGNS FORM,SITTING,120,MMHG,120,120,MMHG,,STUDY DAY 3,3,2001,3
NIDA-CTN-0002,VS,02_007189,ACTIVE,28,SBP,SYSTOLIC BLOOD PRESSURE,VITAL SIGNS FORM,SITTING,126,MMHG,126,126,MMHG,,STUDY DAY 4,4,2001,4
NIDA-CTN-0002,VS,02_007189,ACTIVE,34,SBP,SYSTOLIC BLOOD PRESSURE,VITAL SIGNS FORM,SITTING,136,MMHG,136,136,MMHG,,STUDY DAY 7,7,2001,7
NIDA-CTN-0002,VS,02_007189,ACTIVE,40,SBP,SYSTOLIC BLOOD PRESSURE,VITAL SIGNS FORM,SITTING,130,MMHG,130,130,MMHG,,STUDY DAY 8,8,2001,8
NIDA-CTN-0002,VS,02_007189,ACTIVE,46,SBP,SYSTOLIC BLOOD PRESSURE,VITAL SIGNS FORM,SITTING,130,MMHG,130,130,MMHG,,STUDY DAY 9,9,2001,9
NIDA-CTN-0002,VS,02_007189,ACTIVE,52,SBP,SYSTOLIC BLOOD PRESSURE,VITAL SIGNS FORM,SITTING,130,MMHG,130,130,MMHG,,STUDY DAY 10,10,2001,10
NIDA-CTN-0002,VS,02_007189,ACTIVE,59,SBP,SYSTOLIC BLOOD PRESSURE,VITAL SIGNS FORM,SITTING,118,MMHG,118,118,MMHG,,STUDY DAY 14,14,2001,14
NIDA-CTN-0002,VS,02_007189,FOLLOW-UP 1,65,SBP,SYSTOLIC BLOOD PRESSURE,VITAL SIGNS FORM,SITTING,148,MMHG,148,148,MMHG,,FOLLOW-UP 1,15,2001,30
NIDA-CTN-0002,VS,02_007189,FOLLOW-UP 2,71,SBP,SYSTOLIC BLOOD PRESSURE,VITAL SIGNS FORM,SITTING,142,MMHG,142,142,MMHG,,FOLLOW-UP 2,16,2001,109
NIDA-CTN-0002,VS,02_007189,SCREENING,1,TEMP,TEMPERATURE,VITAL SIGNS FORM,SITTING,98.8,F,98.8,98.8,F,Y,"BASELINE, ANY DAY PRIOR TO FIRST DOSE",0,2001,-7
NIDA-CTN-0002,VS,02_007189,ACTIVE,9,TEMP,TEMPERATURE,VITAL SIGNS FORM,SITTING,99.4,F,99.4,99.4,F,,STUDY DAY 1,1,2001,1
NIDA-CTN-0002,VS,02_007189,ACTIVE,15,TEMP,TEMPERATURE,VITAL SIGNS FORM,SITTING,99.0,F,99.0,99,F,,STUDY DAY 2,2,2001,2
NIDA-CTN-0002,VS,02_007189,ACTIVE,21,TEMP,TEMPERATURE,VITAL SIGNS FORM,SITTING,99.4,F,99.4,99.4,F,,STUDY DAY 3,3,2001,3
NIDA-CTN-0002,VS,02_007189,ACTIVE,27,TEMP,TEMPERATURE,VITAL SIGNS FORM,SITTING,99.8,F,99.8,99.8,F,,STUDY DAY 4,4,2001,4
NIDA-CTN-0002,VS,02_007189,ACTIVE,33,TEMP,TEMPERATURE,VITAL SIGNS FORM,SITTING,99.4,F,99.4,99.4,F,,STUDY DAY 7,7,2001,7
NIDA-CTN-0002,VS,02_007189,ACTIVE,39,TEMP,TEMPERATURE,VITAL SIGNS FORM,SITTING,99.8,F,99.8,99.8,F,,STUDY DAY 8,8,2001,8
NIDA-CTN-0002,VS,02_007189,ACTIVE,45,TEMP,TEMPERATURE,VITAL SIGNS FORM,SITTING,99.4,F,99.4,99.4,F,,STUDY DAY 9,9,2001,9
NIDA-CTN-0002,VS,02_007189,ACTIVE,51,TEMP,TEMPERATURE,VITAL SIGNS FORM,SITTING,99.8,F,99.8,99.8,F,,STUDY DAY 10,10,2001,10
NIDA-CTN-0002,VS,02_007189,ACTIVE,58,TEMP,TEMPERATURE,VITAL SIGNS FORM,SITTING,99.8,F,99.8,99.8,F,,STUDY DAY 14,14,2001,14
NIDA-CTN-0002,VS,02_007189,FOLLOW-UP 1,64,TEMP,TEMPERATURE,VITAL SIGNS FORM,SITTING,99.6,F,99.6,99.6,F,,FOLLOW-UP 1,15,2001,30
NIDA-CTN-0002,VS,02_007189,FOLLOW-UP 2,70,TEMP,TEMPERATURE,VITAL SIGNS FORM,SITTING,99.6,F,99.6,99.6,F,,FOLLOW-UP 2,16,2001,109
NIDA-CTN-0002,VS,02_007189,SCREENING,8,WEIGHT,WEIGHT,PHYSICAL EXAMINATION FORM,,162,POUNDS,162,162,POUNDS,Y,"BASELINE, ANY DAY PRIOR TO FIRST DOSE",0,2001,1
NIDA-CTN-0002,VS,02_007784,SCREENING,3,DBP,DIASTOLIC BLOOD PRESSURE,VITAL SIGNS FORM,SITTING,086,MMHG,086,86,MMHG,Y,"BASELINE, ANY DAY PRIOR TO FIRST DOSE",0,2001,-1
NIDA-CTN-0002,VS,02_007784,ACTIVE,11,DBP,DIASTOLIC BLOOD PRESSURE,VITAL SIGNS FORM,SITTING,096,MMHG,096,96,MMHG,,STUDY DAY 1,1,2001,1
NIDA-CTN-0002,VS,02_007784,ACTIVE,17,DBP,DIASTOLIC BLOOD PRESSURE,VITAL SIGNS FORM,SITTING,102,MMHG,102,102,MMHG,,STUDY DAY 2,2,2001,2
NIDA-CTN-0002,VS,02_007784,ACTIVE,23,DBP,DIASTOLIC BLOOD PRESSURE,VITAL SIGNS FORM,SITTING,084,MMHG,084,84,MMHG,,STUDY DAY 4,4,2001,4
NIDA-CTN-0002,VS,02_007784,ACTIVE,29,DBP,DIASTOLIC BLOOD PRESSURE,VITAL SIGNS FORM,STANDING,094,MMHG,094,94,MMHG,,STUDY DAY 8,8,2001,8
NIDA-CTN-0002,VS,02_007784,ACTIVE,35,DBP,DIASTOLIC BLOOD PRESSURE,VITAL SIGNS FORM,SITTING,100,MMHG,100,100,MMHG,,STUDY DAY 9,9,2001,9
NIDA-CTN-0002,VS,02_007784,ACTIVE,41,DBP,DIASTOLIC BLOOD PRESSURE,VITAL SIGNS FORM,SITTING,098,MMHG,098,98,MMHG,,STUDY DAY 11,11,2001,11
NIDA-CTN-0002,VS,02_007784,ACTIVE,47,DBP,DIASTOLIC BLOOD PRESSURE,VITAL SIGNS FORM,SITTING,086,MMHG,086,86,MMHG,,STUDY DAY 14,14,2001,14
NIDA-CTN-0002,VS,02_007784,SCREENING,7,HEIGHT,HEIGHT,PHYSICAL EXAMINATION FORM,,69,INCHES,69,69,INCHES,Y,"BASELINE, ANY DAY PRIOR TO FIRST DOSE",0,2001,1
NIDA-CTN-0002,VS,02_007784,SCREENING,4,PULSE,PULSE,VITAL SIGNS FORM,SITTING,56,BEATS/MINUTE,56,56,BEATS/MINUTE,Y,"BASELINE, ANY DAY PRIOR TO FIRST DOSE",0,2001,-1
NIDA-CTN-0002,VS,02_007784,SCREENING,6,PULSE,PULSE,CLINICAL OPIATE WITHDRAWAL SCALE FORM,SITTING,56,BEATS/MINUTE,56,56,BEATS/MINUTE,Y,"BASELINE, ANY DAY PRIOR TO FIRST DOSE",0,2001,-1
NIDA-CTN-0002,VS,02_007784,ACTIVE,12,PULSE,PULSE,VITAL SIGNS FORM,SITTING,64,BEATS/MINUTE,64,64,BEATS/MINUTE,,STUDY DAY 1,1,2001,1
NIDA-CTN-0002,VS,02_007784,ACTIVE,14,PULSE,PULSE,CLINICAL OPIATE WITHDRAWAL SCALE FORM,SITTING,66,BEATS/MINUTE,66,66,BEATS/MINUTE,,STUDY DAY 1,1,2001,1
NIDA-CTN-0002,VS,02_007784,ACTIVE,18,PULSE,PULSE,VITAL SIGNS FORM,SITTING,60,BEATS/MINUTE,60,60,BEATS/MINUTE,,STUDY DAY 2,2,2001,2
NIDA-CTN-0002,VS,02_007784,ACTIVE,20,PULSE,PULSE,CLINICAL OPIATE WITHDRAWAL SCALE FORM,SITTING,60,BEATS/MINUTE,60,60,BEATS/MINUTE,,STUDY DAY 2,2,2001,2
NIDA-CTN-0002,VS,02_007784,ACTIVE,24,PULSE,PULSE,VITAL SIGNS FORM,SITTING,64,BEATS/MINUTE,64,64,BEATS/MINUTE,,STUDY DAY 4,4,2001,4
NIDA-CTN-0002,VS,02_007784,ACTIVE,26,PULSE,PULSE,CLINICAL OPIATE WITHDRAWAL SCALE FORM,SITTING,64,BEATS/MINUTE,64,64,BEATS/MINUTE,,STUDY DAY 4,4,2001,4
NIDA-CTN-0002,VS,02_007784,ACTIVE,30,PULSE,PULSE,VITAL SIGNS FORM,STANDING,72,BEATS/MINUTE,72,72,BEATS/MINUTE,,STUDY DAY 8,8,2001,8
NIDA-CTN-0002,VS,02_007784,ACTIVE,32,PULSE,PULSE,CLINICAL OPIATE WITHDRAWAL SCALE FORM,SITTING,72,BEATS/MINUTE,72,72,BEATS/MINUTE,,STUDY DAY 8,8,2001,8
NIDA-CTN-0002,VS,02_007784,ACTIVE,36,PULSE,PULSE,VITAL SIGNS FORM,SITTING,76,BEATS/MINUTE,76,76,BEATS/MINUTE,,STUDY DAY 9,9,2001,9
NIDA-CTN-0002,VS,02_007784,ACTIVE,38,PULSE,PULSE,CLINICAL OPIATE WITHDRAWAL SCALE FORM,SITTING,76,BEATS/MINUTE,76,76,BEATS/MINUTE,,STUDY DAY 9,9,2001,9
NIDA-CTN-0002,VS,02_007784,ACTIVE,42,PULSE,PULSE,VITAL SIGNS FORM,SITTING,60,BEATS/MINUTE,60,60,BEATS/MINUTE,,STUDY DAY 11,11,2001,11
NIDA-CTN-0002,VS,02_007784,ACTIVE,44,PULSE,PULSE,CLINICAL OPIATE WITHDRAWAL SCALE FORM,SITTING,60,BEATS/MINUTE,60,60,BEATS/MINUTE,,STUDY DAY 11,11,2001,11
NIDA-CTN-0002,VS,02_007784,ACTIVE,48,PULSE,PULSE,VITAL SIGNS FORM,SITTING,76,BEATS/MINUTE,76,76,BEATS/MINUTE,,STUDY DAY 14,14,2001,14
NIDA-CTN-0002,VS,02_007784,ACTIVE,50,PULSE,PULSE,CLINICAL OPIATE WITHDRAWAL SCALE FORM,SITTING,76,BEATS/MINUTE,76,76,BEATS/MINUTE,,STUDY DAY 14,14,2001,14
NIDA-CTN-0002,VS,02_007784,FOLLOW-UP 1,51,PULSE,PULSE,CLINICAL OPIATE WITHDRAWAL SCALE FORM,SITTING,72,BEATS/MINUTE,72,72,BEATS/MINUTE,,FOLLOW-UP 1,15,2001,60
NIDA-CTN-0002,VS,02_007784,SCREENING,5,RESP,RESPIRATIONS,VITAL SIGNS FORM,SITTING,14,BREATHS/MIN,14,14,BREATHS/MIN,Y,"BASELINE, ANY DAY PRIOR TO FIRST DOSE",0,2001,-1
NIDA-CTN-0002,VS,02_007784,ACTIVE,13,RESP,RESPIRATIONS,VITAL SIGNS FORM,SITTING,12,BREATHS/MIN,12,12,BREATHS/MIN,,STUDY DAY 1,1,2001,1
NIDA-CTN-0002,VS,02_007784,ACTIVE,19,RESP,RESPIRATIONS,VITAL SIGNS FORM,SITTING,12,BREATHS/MIN,12,12,BREATHS/MIN,,STUDY DAY 2,2,2001,2
NIDA-CTN-0002,VS,02_007784,ACTIVE,25,RESP,RESPIRATIONS,VITAL SIGNS FORM,SITTING,12,BREATHS/MIN,12,12,BREATHS/MIN,,STUDY DAY 4,4,2001,4
NIDA-CTN-0002,VS,02_007784,ACTIVE,31,RESP,RESPIRATIONS,VITAL SIGNS FORM,STANDING,16,BREATHS/MIN,16,16,BREATHS/MIN,,STUDY DAY 8,8,2001,8
NIDA-CTN-0002,VS,02_007784,ACTIVE,37,RESP,RESPIRATIONS,VITAL SIGNS FORM,SITTING,12,BREATHS/MIN,12,12,BREATHS/MIN,,STUDY DAY 9,9,2001,9
NIDA-CTN-0002,VS,02_007784,ACTIVE,43,RESP,RESPIRATIONS,VITAL SIGNS FORM,SITTING,12,BREATHS/MIN,12,12,BREATHS/MIN,,STUDY DAY 11,11,2001,11
NIDA-CTN-0002,VS,02_007784,ACTIVE,49,RESP,RESPIRATIONS,VITAL SIGNS FORM,SITTING,16,BREATHS/MIN,16,16,BREATHS/MIN,,STUDY DAY 14,14,2001,14
NIDA-CTN-0002,VS,02_007784,SCREENING,2,SBP,SYSTOLIC BLOOD PRESSURE,VITAL SIGNS FORM,SITTING,158,MMHG,158,158,MMHG,Y,"BASELINE, ANY DAY PRIOR TO FIRST DOSE",0,2001,-1
NIDA-CTN-0002,VS,02_007784,ACTIVE,10,SBP,SYSTOLIC BLOOD PRESSURE,VITAL SIGNS FORM,SITTING,152,MMHG,152,152,MMHG,,STUDY DAY 1,1,2001,1
NIDA-CTN-0002,VS,02_007784,ACTIVE,16,SBP,SYSTOLIC BLOOD PRESSURE,VITAL SIGNS FORM,SITTING,150,MMHG,150,150,MMHG,,STUDY DAY 2,2,2001,2
NIDA-CTN-0002,VS,02_007784,ACTIVE,22,SBP,SYSTOLIC BLOOD PRESSURE,VITAL SIGNS FORM,SITTING,122,MMHG,122,122,MMHG,,STUDY DAY 4,4,2001,4
NIDA-CTN-0002,VS,02_007784,ACTIVE,28,SBP,SYSTOLIC BLOOD PRESSURE,VITAL SIGNS FORM,STANDING,124,MMHG,124,124,MMHG,,STUDY DAY 8,8,2001,8
NIDA-CTN-0002,VS,02_007784,ACTIVE,34,SBP,SYSTOLIC BLOOD PRESSURE,VITAL SIGNS FORM,SITTING,144,MMHG,144,144,MMHG,,STUDY DAY 9,9,2001,9
NIDA-CTN-0002,VS,02_007784,ACTIVE,40,SBP,SYSTOLIC BLOOD PRESSURE,VITAL SIGNS FORM,SITTING,140,MMHG,140,140,MMHG,,STUDY DAY 11,11,2001,11
NIDA-CTN-0002,VS,02_007784,ACTIVE,46,SBP,SYSTOLIC BLOOD PRESSURE,VITAL SIGNS FORM,SITTING,128,MMHG,128,128,MMHG,,STUDY DAY 14,14,2001,14
NIDA-CTN-0002,VS,02_007784,SCREENING,1,TEMP,TEMPERATURE,VITAL SIGNS FORM,SITTING,97.0,F,97.0,97,F,Y,"BASELINE, ANY DAY PRIOR TO FIRST DOSE",0,2001,-1
NIDA-CTN-0002,VS,02_007784,ACTIVE,9,TEMP,TEMPERATURE,VITAL SIGNS FORM,SITTING,97.0,F,97.0,97,F,,STUDY DAY 1,1,2001,1
NIDA-CTN-0002,VS,02_007784,ACTIVE,15,TEMP,TEMPERATURE,VITAL SIGNS FORM,SITTING,97.0,F,97.0,97,F,,STUDY DAY 2,2,2001,2
NIDA-CTN-0002,VS,02_007784,ACTIVE,21,TEMP,TEMPERATURE,VITAL SIGNS FORM,SITTING,97.0,F,97.0,97,F,,STUDY DAY 4,4,2001,4
NIDA-CTN-0002,VS,02_007784,ACTIVE,27,TEMP,TEMPERATURE,VITAL SIGNS FORM,STANDING,98.0,F,98.0,98,F,,STUDY DAY 8,8,2001,8
NIDA-CTN-0002,VS,02_007784,ACTIVE,33,TEMP,TEMPERATURE,VITAL SIGNS FORM,SITTING,98.0,F,98.0,98,F,,STUDY DAY 9,9,2001,9
NIDA-CTN-0002,VS,02_007784,ACTIVE,39,TEMP,TEMPERATURE,VITAL SIGNS FORM,SITTING,97.0,F,97.0,97,F,,STUDY DAY 11,11,2001,11
NIDA-CTN-0002,VS,02_007784,ACTIVE,45,TEMP,TEMPERATURE,VITAL SIGNS FORM,SITTING,97.0,F,97.0,97,F,,STUDY DAY 14,14,2001,14
NIDA-CTN-0002,VS,02_007784,SCREENING,8,WEIGHT,WEIGHT,PHYSICAL EXAMINATION FORM,,139,POUNDS,139,139,POUNDS,Y,"BASELINE, ANY DAY PRIOR TO FIRST DOSE",0,2001,1
NIDA-CTN-0002,VS,02_008177,SCREENING,3,DBP,DIASTOLIC BLOOD PRESSURE,VITAL SIGNS FORM,SITTING,068,MMHG,068,68,MMHG,Y,"BASELINE, ANY DAY PRIOR TO FIRST DOSE",0,2001,1
NIDA-CTN-0002,VS,02_008177,ACTIVE,11,DBP,DIASTOLIC BLOOD PRESSURE,VITAL SIGNS FORM,SITTING,056,MMHG,056,56,MMHG,,STUDY DAY 1,1,2001,1
NIDA-CTN-0002,VS,02_008177,ACTIVE,17,DBP,DIASTOLIC BLOOD PRESSURE,VITAL SIGNS FORM,SITTING,072,MMHG,072,72,MMHG,,STUDY DAY 2,2,2001,2
NIDA-CTN-0002,VS,02_008177,ACTIVE,23,DBP,DIASTOLIC BLOOD PRESSURE,VITAL SIGNS FORM,SITTING,067,MMHG,067,67,MMHG,,STUDY DAY 3,3,2001,3
NIDA-CTN-0002,VS,02_008177,ACTIVE,29,DBP,DIASTOLIC BLOOD PRESSURE,VITAL SIGNS FORM,SITTING,072,MMHG,072,72,MMHG,,STUDY DAY 4,4,2001,4
NIDA-CTN-0002,VS,02_008177,ACTIVE,35,DBP,DIASTOLIC BLOOD PRESSURE,VITAL SIGNS FORM,SITTING,071,MMHG,071,71,MMHG,,STUDY DAY 7,7,2001,7
NIDA-CTN-0002,VS,02_008177,ACTIVE,41,DBP,DIASTOLIC BLOOD PRESSURE,VITAL SIGNS FORM,SITTING,068,MMHG,068,68,MMHG,,STUDY DAY 8,8,2001,8
NIDA-CTN-0002,VS,02_008177,ACTIVE,47,DBP,DIASTOLIC BLOOD PRESSURE,VITAL SIGNS FORM,SITTING,065,MMHG,065,65,MMHG,,STUDY DAY 9,9,2001,9
NIDA-CTN-0002,VS,02_008177,ACTIVE,53,DBP,DIASTOLIC BLOOD PRESSURE,VITAL SIGNS FORM,SITTING,071,MMHG,071,71,MMHG,,STUDY DAY 10,10,2001,10
NIDA-CTN-0002,VS,02_008177,ACTIVE,59,DBP,DIASTOLIC BLOOD PRESSURE,VITAL SIGNS FORM,SITTING,67,MMHG,67,67,MMHG,,STUDY DAY 11,11,2001,11
NIDA-CTN-0002,VS,02_008177,ACTIVE,65,DBP,DIASTOLIC BLOOD PRESSURE,VITAL SIGNS FORM,SITTING,069,MMHG,069,69,MMHG,,STUDY DAY 14,14,2001,14
NIDA-CTN-0002,VS,02_008177,SCREENING,6,HEIGHT,HEIGHT,PHYSICAL EXAMINATION FORM,,69,INCHES,69,69,INCHES,Y,"BASELINE, ANY DAY PRIOR TO FIRST DOSE",0,2001,1
NIDA-CTN-0002,VS,02_008177,SCREENING,4,PULSE,PULSE,VITAL SIGNS FORM,SITTING,78,BEATS/MINUTE,78,78,BEATS/MINUTE,Y,"BASELINE, ANY DAY PRIOR TO FIRST DOSE",0,2001,1
NIDA-CTN-0002,VS,02_008177,SCREENING,8,PULSE,PULSE,CLINICAL OPIATE WITHDRAWAL SCALE FORM,SITTING,78,BEATS/MINUTE,78,78,BEATS/MINUTE,Y,"BASELINE, ANY DAY PRIOR TO FIRST DOSE",0,2001,1
NIDA-CTN-0002,VS,02_008177,ACTIVE,12,PULSE,PULSE,VITAL SIGNS FORM,SITTING,73,BEATS/MINUTE,73,73,BEATS/MINUTE,,STUDY DAY 1,1,2001,1
NIDA-CTN-0002,VS,02_008177,ACTIVE,14,PULSE,PULSE,CLINICAL OPIATE WITHDRAWAL SCALE FORM,SITTING,78,BEATS/MINUTE,78,78,BEATS/MINUTE,,STUDY DAY 1,1,2001,1
NIDA-CTN-0002,VS,02_008177,ACTIVE,18,PULSE,PULSE,VITAL SIGNS FORM,SITTING,63,BEATS/MINUTE,63,63,BEATS/MINUTE,,STUDY DAY 2,2,2001,2
NIDA-CTN-0002,VS,02_008177,ACTIVE,20,PULSE,PULSE,CLINICAL OPIATE WITHDRAWAL SCALE FORM,SITTING,63,BEATS/MINUTE,63,63,BEATS/MINUTE,,STUDY DAY 2,2,2001,2
NIDA-CTN-0002,VS,02_008177,ACTIVE,24,PULSE,PULSE,VITAL SIGNS FORM,SITTING,62,BEATS/MINUTE,62,62,BEATS/MINUTE,,STUDY DAY 3,3,2001,3
NIDA-CTN-0002,VS,02_008177,ACTIVE,26,PULSE,PULSE,CLINICAL OPIATE WITHDRAWAL SCALE FORM,SITTING,62,BEATS/MINUTE,62,62,BEATS/MINUTE,,STUDY DAY 3,3,2001,3
NIDA-CTN-0002,VS,02_008177,ACTIVE,30,PULSE,PULSE,VITAL SIGNS FORM,SITTING,68,BEATS/MINUTE,68,68,BEATS/MINUTE,,STUDY DAY 4,4,2001,4
NIDA-CTN-0002,VS,02_008177,ACTIVE,32,PULSE,PULSE,CLINICAL OPIATE WITHDRAWAL SCALE FORM,SITTING,68,BEATS/MINUTE,68,68,BEATS/MINUTE,,STUDY DAY 4,4,2001,4
NIDA-CTN-0002,VS,02_008177,ACTIVE,36,PULSE,PULSE,VITAL SIGNS FORM,SITTING,66,BEATS/MINUTE,66,66,BEATS/MINUTE,,STUDY DAY 7,7,2001,7
NIDA-CTN-0002,VS,02_008177,ACTIVE,38,PULSE,PULSE,CLINICAL OPIATE WITHDRAWAL SCALE FORM,SITTING,66,BEATS/MINUTE,66,66,BEATS/MINUTE,,STUDY DAY 7,7,2001,7
NIDA-CTN-0002,VS,02_008177,ACTIVE,42,PULSE,PULSE,VITAL SIGNS FORM,SITTING,64,BEATS/MINUTE,64,64,BEATS/MINUTE,,STUDY DAY 8,8,2001,8
NIDA-CTN-0002,VS,02_008177,ACTIVE,44,PULSE,PULSE,CLINICAL OPIATE WITHDRAWAL SCALE FORM,SITTING,64,BEATS/MINUTE,64,64,BEATS/MINUTE,,STUDY DAY 8,8,2001,8
NIDA-CTN-0002,VS,02_008177,ACTIVE,48,PULSE,PULSE,VITAL SIGNS FORM,SITTING,64,BEATS/MINUTE,64,64,BEATS/MINUTE,,STUDY DAY 9,9,2001,9
NIDA-CTN-0002,VS,02_008177,ACTIVE,50,PULSE,PULSE,CLINICAL OPIATE WITHDRAWAL SCALE FORM,SITTING,64,BEATS/MINUTE,64,64,BEATS/MINUTE,,STUDY DAY 9,9,2001,9
NIDA-CTN-0002,VS,02_008177,ACTIVE,54,PULSE,PULSE,VITAL SIGNS FORM,SITTING,71,BEATS/MINUTE,71,71,BEATS/MINUTE,,STUDY DAY 10,10,2001,10
NIDA-CTN-0002,VS,02_008177,ACTIVE,56,PULSE,PULSE,CLINICAL OPIATE WITHDRAWAL SCALE FORM,SITTING,71,BEATS/MINUTE,71,71,BEATS/MINUTE,,STUDY DAY 10,10,2001,10
NIDA-CTN-0002,VS,02_008177,ACTIVE,60,PULSE,PULSE,VITAL SIGNS FORM,SITTING,80,BEATS/MINUTE,80,80,BEATS/MINUTE,,STUDY DAY 11,11,2001,11
NIDA-CTN-0002,VS,02_008177,ACTIVE,62,PULSE,PULSE,CLINICAL OPIATE WITHDRAWAL SCALE FORM,SITTING,80,BEATS/MINUTE,80,80,BEATS/MINUTE,,STUDY DAY 11,11,2001,11
NIDA-CTN-0002,VS,02_008177,ACTIVE,66,PULSE,PULSE,VITAL SIGNS FORM,SITTING,64,BEATS/MINUTE,64,64,BEATS/MINUTE,,STUDY DAY 14,14,2001,14
NIDA-CTN-0002,VS,02_008177,ACTIVE,68,PULSE,PULSE,CLINICAL OPIATE WITHDRAWAL SCALE FORM,SITTING,64,BEATS/MINUTE,64,64,BEATS/MINUTE,,STUDY DAY 14,14,2001,14
NIDA-CTN-0002,VS,02_008177,SCREENING,5,RESP,RESPIRATIONS,VITAL SIGNS FORM,SITTING,16,BREATHS/MIN,16,16,BREATHS/MIN,Y,"BASELINE, ANY DAY PRIOR TO FIRST DOSE",0,2001,1
NIDA-CTN-0002,VS,02_008177,ACTIVE,13,RESP,RESPIRATIONS,VITAL SIGNS FORM,SITTING,12,BREATHS/MIN,12,12,BREATHS/MIN,,STUDY DAY 1,1,2001,1
NIDA-CTN-0002,VS,02_008177,ACTIVE,19,RESP,RESPIRATIONS,VITAL SIGNS FORM,SITTING,12,BREATHS/MIN,12,12,BREATHS/MIN,,STUDY DAY 2,2,2001,2
NIDA-CTN-0002,VS,02_008177,ACTIVE,25,RESP,RESPIRATIONS,VITAL SIGNS FORM,SITTING,12,BREATHS/MIN,12,12,BREATHS/MIN,,STUDY DAY 3,3,2001,3
NIDA-CTN-0002,VS,02_008177,ACTIVE,31,RESP,RESPIRATIONS,VITAL SIGNS FORM,SITTING,12,BREATHS/MIN,12,12,BREATHS/MIN,,STUDY DAY 4,4,2001,4
NIDA-CTN-0002,VS,02_008177,ACTIVE,37,RESP,RESPIRATIONS,VITAL SIGNS FORM,SITTING,12,BREATHS/MIN,12,12,BREATHS/MIN,,STUDY DAY 7,7,2001,7
NIDA-CTN-0002,VS,02_008177,ACTIVE,43,RESP,RESPIRATIONS,VITAL SIGNS FORM,SITTING,12,BREATHS/MIN,12,12,BREATHS/MIN,,STUDY DAY 8,8,2001,8
NIDA-CTN-0002,VS,02_008177,ACTIVE,49,RESP,RESPIRATIONS,VITAL SIGNS FORM,SITTING,12,BREATHS/MIN,12,12,BREATHS/MIN,,STUDY DAY 9,9,2001,9
NIDA-CTN-0002,VS,02_008177,ACTIVE,55,RESP,RESPIRATIONS,VITAL SIGNS FORM,SITTING,12,BREATHS/MIN,12,12,BREATHS/MIN,,STUDY DAY 10,10,2001,10
NIDA-CTN-0002,VS,02_008177,ACTIVE,61,RESP,RESPIRATIONS,VITAL SIGNS FORM,SITTING,14,BREATHS/MIN,14,14,BREATHS/MIN,,STUDY DAY 11,11,2001,11
NIDA-CTN-0002,VS,02_008177,ACTIVE,67,RESP,RESPIRATIONS,VITAL SIGNS FORM,SITTING,12,BREATHS/MIN,12,12,BREATHS/MIN,,STUDY DAY 14,14,2001,14
NIDA-CTN-0002,VS,02_008177,SCREENING,2,SBP,SYSTOLIC BLOOD PRESSURE,VITAL SIGNS FORM,SITTING,107,MMHG,107,107,MMHG,Y,"BASELINE, ANY DAY PRIOR TO FIRST DOSE",0,2001,1
NIDA-CTN-0002,VS,02_008177,ACTIVE,10,SBP,SYSTOLIC BLOOD PRESSURE,VITAL SIGNS FORM,SITTING,102,MMHG,102,102,MMHG,,STUDY DAY 1,1,2001,1
NIDA-CTN-0002,VS,02_008177,ACTIVE,16,SBP,SYSTOLIC BLOOD PRESSURE,VITAL SIGNS FORM,SITTING,125,MMHG,125,125,MMHG,,STUDY DAY 2,2,2001,2
NIDA-CTN-0002,VS,02_008177,ACTIVE,22,SBP,SYSTOLIC BLOOD PRESSURE,VITAL SIGNS FORM,SITTING,107,MMHG,107,107,MMHG,,STUDY DAY 3,3,2001,3
NIDA-CTN-0002,VS,02_008177,ACTIVE,28,SBP,SYSTOLIC BLOOD PRESSURE,VITAL SIGNS FORM,SITTING,113,MMHG,113,113,MMHG,,STUDY DAY 4,4,2001,4
NIDA-CTN-0002,VS,02_008177,ACTIVE,34,SBP,SYSTOLIC BLOOD PRESSURE,VITAL SIGNS FORM,SITTING,106,MMHG,106,106,MMHG,,STUDY DAY 7,7,2001,7
NIDA-CTN-0002,VS,02_008177,ACTIVE,40,SBP,SYSTOLIC BLOOD PRESSURE,VITAL SIGNS FORM,SITTING,108,MMHG,108,108,MMHG,,STUDY DAY 8,8,2001,8
NIDA-CTN-0002,VS,02_008177,ACTIVE,46,SBP,SYSTOLIC BLOOD PRESSURE,VITAL SIGNS FORM,SITTING,108,MMHG,108,108,MMHG,,STUDY DAY 9,9,2001,9
NIDA-CTN-0002,VS,02_008177,ACTIVE,52,SBP,SYSTOLIC BLOOD PRESSURE,VITAL SIGNS FORM,SITTING,112,MMHG,112,112,MMHG,,STUDY DAY 10,10,2001,10
NIDA-CTN-0002,VS,02_008177,ACTIVE,58,SBP,SYSTOLIC BLOOD PRESSURE,VITAL SIGNS FORM,SITTING,114,MMHG,114,114,MMHG,,STUDY DAY 11,11,2001,11
NIDA-CTN-0002,VS,02_008177,ACTIVE,64,SBP,SYSTOLIC BLOOD PRESSURE,VITAL SIGNS FORM,SITTING,116,MMHG,116,116,MMHG,,STUDY DAY 14,14,2001,14
NIDA-CTN-0002,VS,02_008177,SCREENING,1,TEMP,TEMPERATURE,VITAL SIGNS FORM,SITTING,98.2,F,98.2,98.2,F,Y,"BASELINE, ANY DAY PRIOR TO FIRST DOSE",0,2001,1
NIDA-CTN-0002,VS,02_008177,ACTIVE,9,TEMP,TEMPERATURE,VITAL SIGNS FORM,SITTING,98.2,F,98.2,98.2,F,,STUDY DAY 1,1,2001,1
NIDA-CTN-0002,VS,02_008177,ACTIVE,15,TEMP,TEMPERATURE,VITAL SIGNS FORM,SITTING,98.2,F,98.2,98.2,F,,STUDY DAY 2,2,2001,2
NIDA-CTN-0002,VS,02_008177,ACTIVE,21,TEMP,TEMPERATURE,VITAL SIGNS FORM,SITTING,98.6,F,98.6,98.6,F,,STUDY DAY 3,3,2001,3
NIDA-CTN-0002,VS,02_008177,ACTIVE,27,TEMP,TEMPERATURE,VITAL SIGNS FORM,SITTING,98.2,F,98.2,98.2,F,,STUDY DAY 4,4,2001,4
NIDA-CTN-0002,VS,02_008177,ACTIVE,33,TEMP,TEMPERATURE,VITAL SIGNS FORM,SITTING,98.2,F,98.2,98.2,F,,STUDY DAY 7,7,2001,7
NIDA-CTN-0002,VS,02_008177,ACTIVE,39,TEMP,TEMPERATURE,VITAL SIGNS FORM,SITTING,98.6,F,98.6,98.6,F,,STUDY DAY 8,8,2001,8
NIDA-CTN-0002,VS,02_008177,ACTIVE,45,TEMP,TEMPERATURE,VITAL SIGNS FORM,SITTING,98.6,F,98.6,98.6,F,,STUDY DAY 9,9,2001,9
NIDA-CTN-0002,VS,02_008177,ACTIVE,51,TEMP,TEMPERATURE,VITAL SIGNS FORM,SITTING,98.6,F,98.6,98.6,F,,STUDY DAY 10,10,2001,10
NIDA-CTN-0002,VS,02_008177,ACTIVE,57,TEMP,TEMPERATURE,VITAL SIGNS FORM,SITTING,96.8,F,96.8,96.8,F,,STUDY DAY 11,11,2001,11
NIDA-CTN-0002,VS,02_008177,ACTIVE,63,TEMP,TEMPERATURE,VITAL SIGNS FORM,SITTING,98.6,F,98.6,98.6,F,,STUDY DAY 14,14,2001,14
NIDA-CTN-0002,VS,02_008177,SCREENING,7,WEIGHT,WEIGHT,PHYSICAL EXAMINATION FORM,,142,POUNDS,142,142,POUNDS,Y,"BASELINE, ANY DAY PRIOR TO FIRST DOSE",0,2001,1
NIDA-CTN-0002,VS,02_008479,SCREENING,3,DBP,DIASTOLIC BLOOD PRESSURE,VITAL SIGNS FORM,SITTING,088,MMHG,088,88,MMHG,Y,"BASELINE, ANY DAY PRIOR TO FIRST DOSE",0,2001,-1
NIDA-CTN-0002,VS,02_008479,ACTIVE,11,DBP,DIASTOLIC BLOOD PRESSURE,VITAL SIGNS FORM,SITTING,076,MMHG,076,76,MMHG,,STUDY DAY 1,1,2001,1
NIDA-CTN-0002,VS,02_008479,ACTIVE,17,DBP,DIASTOLIC BLOOD PRESSURE,VITAL SIGNS FORM,SITTING,084,MMHG,084,84,MMHG,,STUDY DAY 2,2,2001,2
NIDA-CTN-0002,VS,02_008479,ACTIVE,23,DBP,DIASTOLIC BLOOD PRESSURE,VITAL SIGNS FORM,SITTING,076,MMHG,076,76,MMHG,,STUDY DAY 3,3,2001,3
NIDA-CTN-0002,VS,02_008479,ACTIVE,29,DBP,DIASTOLIC BLOOD PRESSURE,VITAL SIGNS FORM,SITTING,084,MMHG,084,84,MMHG,,STUDY DAY 6,6,2001,6
NIDA-CTN-0002,VS,02_008479,ACTIVE,35,DBP,DIASTOLIC BLOOD PRESSURE,VITAL SIGNS FORM,SITTING,070,MMHG,070,70,MMHG,,STUDY DAY 7,7,2001,7
NIDA-CTN-0002,VS,02_008479,ACTIVE,41,DBP,DIASTOLIC BLOOD PRESSURE,VITAL SIGNS FORM,SITTING,076,MMHG,076,76,MMHG,,STUDY DAY 9,9,2001,9
NIDA-CTN-0002,VS,02_008479,ACTIVE,47,DBP,DIASTOLIC BLOOD PRESSURE,VITAL SIGNS FORM,SITTING,074,MMHG,074,74,MMHG,,STUDY DAY 10,10,2001,10
NIDA-CTN-0002,VS,02_008479,ACTIVE,53,DBP,DIASTOLIC BLOOD PRESSURE,VITAL SIGNS FORM,SITTING,076,MMHG,076,76,MMHG,,STUDY DAY 13,13,2001,13
NIDA-CTN-0002,VS,02_008479,SCREENING,6,HEIGHT,HEIGHT,PHYSICAL EXAMINATION FORM,,61,INCHES,61,61,INCHES,Y,"BASELINE, ANY DAY PRIOR TO FIRST DOSE",0,2001,-1
NIDA-CTN-0002,VS,02_008479,SCREENING,4,PULSE,PULSE,VITAL SIGNS FORM,SITTING,84,BEATS/MINUTE,84,84,BEATS/MINUTE,Y,"BASELINE, ANY DAY PRIOR TO FIRST DOSE",0,2001,-1
NIDA-CTN-0002,VS,02_008479,SCREENING,8,PULSE,PULSE,CLINICAL OPIATE WITHDRAWAL SCALE FORM,SITTING,92,BEATS/MINUTE,92,92,BEATS/MINUTE,Y,"BASELINE, ANY DAY PRIOR TO FIRST DOSE",0,2001,1
NIDA-CTN-0002,VS,02_008479,ACTIVE,12,PULSE,PULSE,VITAL SIGNS FORM,SITTING,92,BEATS/MINUTE,92,92,BEATS/MINUTE,,STUDY DAY 1,1,2001,1
NIDA-CTN-0002,VS,02_008479,ACTIVE,14,PULSE,PULSE,CLINICAL OPIATE WITHDRAWAL SCALE FORM,SITTING,92,BEATS/MINUTE,92,92,BEATS/MINUTE,,STUDY DAY 1,1,2001,1
NIDA-CTN-0002,VS,02_008479,ACTIVE,18,PULSE,PULSE,VITAL SIGNS FORM,SITTING,96,BEATS/MINUTE,96,96,BEATS/MINUTE,,STUDY DAY 2,2,2001,2
NIDA-CTN-0002,VS,02_008479,ACTIVE,20,PULSE,PULSE,CLINICAL OPIATE WITHDRAWAL SCALE FORM,SITTING,96,BEATS/MINUTE,96,96,BEATS/MINUTE,,STUDY DAY 2,2,2001,2
NIDA-CTN-0002,VS,02_008479,ACTIVE,24,PULSE,PULSE,VITAL SIGNS FORM,SITTING,84,BEATS/MINUTE,84,84,BEATS/MINUTE,,STUDY DAY 3,3,2001,3
NIDA-CTN-0002,VS,02_008479,ACTIVE,26,PULSE,PULSE,CLINICAL OPIATE WITHDRAWAL SCALE FORM,SITTING,84,BEATS/MINUTE,84,84,BEATS/MINUTE,,STUDY DAY 3,3,2001,3
NIDA-CTN-0002,VS,02_008479,ACTIVE,30,PULSE,PULSE,VITAL SIGNS FORM,SITTING,72,BEATS/MINUTE,72,72,BEATS/MINUTE,,STUDY DAY 6,6,2001,6
NIDA-CTN-0002,VS,02_008479,ACTIVE,32,PULSE,PULSE,CLINICAL OPIATE WITHDRAWAL SCALE FORM,SITTING,72,BEATS/MINUTE,72,72,BEATS/MINUTE,,STUDY DAY 6,6,2001,6
NIDA-CTN-0002,VS,02_008479,ACTIVE,36,PULSE,PULSE,VITAL SIGNS FORM,SITTING,68,BEATS/MINUTE,68,68,BEATS/MINUTE,,STUDY DAY 7,7,2001,7
NIDA-CTN-0002,VS,02_008479,ACTIVE,38,PULSE,PULSE,CLINICAL OPIATE WITHDRAWAL SCALE FORM,SITTING,68,BEATS/MINUTE,68,68,BEATS/MINUTE,,STUDY DAY 7,7,2001,7
NIDA-CTN-0002,VS,02_008479,ACTIVE,42,PULSE,PULSE,VITAL SIGNS FORM,SITTING,84,BEATS/MINUTE,84,84,BEATS/MINUTE,,STUDY DAY 9,9,2001,9
NIDA-CTN-0002,VS,02_008479,ACTIVE,44,PULSE,PULSE,CLINICAL OPIATE WITHDRAWAL SCALE FORM,SITTING,84,BEATS/MINUTE,84,84,BEATS/MINUTE,,STUDY DAY 9,9,2001,9
NIDA-CTN-0002,VS,02_008479,ACTIVE,48,PULSE,PULSE,VITAL SIGNS FORM,SITTING,76,BEATS/MINUTE,76,76,BEATS/MINUTE,,STUDY DAY 10,10,2001,10
NIDA-CTN-0002,VS,02_008479,ACTIVE,50,PULSE,PULSE,CLINICAL OPIATE WITHDRAWAL SCALE FORM,SITTING,76,BEATS/MINUTE,76,76,BEATS/MINUTE,,STUDY DAY 10,10,2001,10
NIDA-CTN-0002,VS,02_008479,ACTIVE,54,PULSE,PULSE,VITAL SIGNS FORM,SITTING,68,BEATS/MINUTE,68,68,BEATS/MINUTE,,STUDY DAY 13,13,2001,13
NIDA-CTN-0002,VS,02_008479,ACTIVE,56,PULSE,PULSE,CLINICAL OPIATE WITHDRAWAL SCALE FORM,SITTING,68,BEATS/MINUTE,68,68,BEATS/MINUTE,,STUDY DAY 13,13,2001,13
NIDA-CTN-0002,VS,02_008479,SCREENING,5,RESP,RESPIRATIONS,VITAL SIGNS FORM,SITTING,20,BREATHS/MIN,20,20,BREATHS/MIN,Y,"BASELINE, ANY DAY PRIOR TO FIRST DOSE",0,2001,-1
NIDA-CTN-0002,VS,02_008479,ACTIVE,13,RESP,RESPIRATIONS,VITAL SIGNS FORM,SITTING,16,BREATHS/MIN,16,16,BREATHS/MIN,,STUDY DAY 1,1,2001,1
NIDA-CTN-0002,VS,02_008479,ACTIVE,19,RESP,RESPIRATIONS,VITAL SIGNS FORM,SITTING,24,BREATHS/MIN,24,24,BREATHS/MIN,,STUDY DAY 2,2,2001,2
NIDA-CTN-0002,VS,02_008479,ACTIVE,25,RESP,RESPIRATIONS,VITAL SIGNS FORM,SITTING,12,BREATHS/MIN,12,12,BREATHS/MIN,,STUDY DAY 3,3,2001,3
NIDA-CTN-0002,VS,02_008479,ACTIVE,31,RESP,RESPIRATIONS,VITAL SIGNS FORM,SITTING,20,BREATHS/MIN,20,20,BREATHS/MIN,,STUDY DAY 6,6,2001,6
NIDA-CTN-0002,VS,02_008479,ACTIVE,37,RESP,RESPIRATIONS,VITAL SIGNS FORM,SITTING,12,BREATHS/MIN,12,12,BREATHS/MIN,,STUDY DAY 7,7,2001,7
NIDA-CTN-0002,VS,02_008479,ACTIVE,43,RESP,RESPIRATIONS,VITAL SIGNS FORM,SITTING,12,BREATHS/MIN,12,12,BREATHS/MIN,,STUDY DAY 9,9,2001,9
NIDA-CTN-0002,VS,02_008479,ACTIVE,49,RESP,RESPIRATIONS,VITAL SIGNS FORM,SITTING,10,BREATHS/MIN,10,10,BREATHS/MIN,,STUDY DAY 10,10,2001,10
NIDA-CTN-0002,VS,02_008479,ACTIVE,55,RESP,RESPIRATIONS,VITAL SIGNS FORM,SITTING,10,BREATHS/MIN,10,10,BREATHS/MIN,,STUDY DAY 13,13,2001,13
NIDA-CTN-0002,VS,02_008479,SCREENING,2,SBP,SYSTOLIC BLOOD PRESSURE,VITAL SIGNS FORM,SITTING,122,MMHG,122,122,MMHG,Y,"BASELINE, ANY DAY PRIOR TO FIRST DOSE",0,2001,-1
NIDA-CTN-0002,VS,02_008479,ACTIVE,10,SBP,SYSTOLIC BLOOD PRESSURE,VITAL SIGNS FORM,SITTING,100,MMHG,100,100,MMHG,,STUDY DAY 1,1,2001,1
NIDA-CTN-0002,VS,02_008479,ACTIVE,16,SBP,SYSTOLIC BLOOD PRESSURE,VITAL SIGNS FORM,SITTING,138,MMHG,138,138,MMHG,,STUDY DAY 2,2,2001,2
NIDA-CTN-0002,VS,02_008479,ACTIVE,22,SBP,SYSTOLIC BLOOD PRESSURE,VITAL SIGNS FORM,SITTING,116,MMHG,116,116,MMHG,,STUDY DAY 3,3,2001,3
NIDA-CTN-0002,VS,02_008479,ACTIVE,28,SBP,SYSTOLIC BLOOD PRESSURE,VITAL SIGNS FORM,SITTING,116,MMHG,116,116,MMHG,,STUDY DAY 6,6,2001,6
NIDA-CTN-0002,VS,02_008479,ACTIVE,34,SBP,SYSTOLIC BLOOD PRESSURE,VITAL SIGNS FORM,SITTING,112,MMHG,112,112,MMHG,,STUDY DAY 7,7,2001,7
NIDA-CTN-0002,VS,02_008479,ACTIVE,40,SBP,SYSTOLIC BLOOD PRESSURE,VITAL SIGNS FORM,SITTING,104,MMHG,104,104,MMHG,,STUDY DAY 9,9,2001,9
NIDA-CTN-0002,VS,02_008479,ACTIVE,46,SBP,SYSTOLIC BLOOD PRESSURE,VITAL SIGNS FORM,SITTING,114,MMHG,114,114,MMHG,,STUDY DAY 10,10,2001,10
NIDA-CTN-0002,VS,02_008479,ACTIVE,52,SBP,SYSTOLIC BLOOD PRESSURE,VITAL SIGNS FORM,SITTING,104,MMHG,104,104,MMHG,,STUDY DAY 13,13,2001,13
NIDA-CTN-0002,VS,02_008479,SCREENING,1,TEMP,TEMPERATURE,VITAL SIGNS FORM,SITTING,98.0,F,98.0,98,F,Y,"BASELINE, ANY DAY PRIOR TO FIRST DOSE",0,2001,-1
NIDA-CTN-0002,VS,02_008479,ACTIVE,9,TEMP,TEMPERATURE,VITAL SIGNS FORM,SITTING,99.0,F,99.0,99,F,,STUDY DAY 1,1,2001,1
NIDA-CTN-0002,VS,02_008479,ACTIVE,15,TEMP,TEMPERATURE,VITAL SIGNS FORM,SITTING,98.0,F,98.0,98,F,,STUDY DAY 2,2,2001,2
NIDA-CTN-0002,VS,02_008479,ACTIVE,21,TEMP,TEMPERATURE,VITAL SIGNS FORM,SITTING,98.0,F,98.0,98,F,,STUDY DAY 3,3,2001,3
NIDA-CTN-0002,VS,02_008479,ACTIVE,27,TEMP,TEMPERATURE,VITAL SIGNS FORM,SITTING,98.0,F,98.0,98,F,,STUDY DAY 6,6,2001,6
NIDA-CTN-0002,VS,02_008479,ACTIVE,33,TEMP,TEMPERATURE,VITAL SIGNS FORM,SITTING,98.0,F,98.0,98,F,,STUDY DAY 7,7,2001,7
NIDA-CTN-0002,VS,02_008479,ACTIVE,39,TEMP,TEMPERATURE,VITAL SIGNS FORM,SITTING,98.0,F,98.0,98,F,,STUDY DAY 9,9,2001,9
NIDA-CTN-0002,VS,02_008479,ACTIVE,45,TEMP,TEMPERATURE,VITAL SIGNS FORM,SITTING,98.0,F,98.0,98,F,,STUDY DAY 10,10,2001,10
NIDA-CTN-0002,VS,02_008479,ACTIVE,51,TEMP,TEMPERATURE,VITAL SIGNS FORM,SITTING,97.0,F,97.0,97,F,,STUDY DAY 13,13,2001,13
NIDA-CTN-0002,VS,02_008479,SCREENING,7,WEIGHT,WEIGHT,PHYSICAL EXAMINATION FORM,,116,POUNDS,116,116,POUNDS,Y,"BASELINE, ANY DAY PRIOR TO FIRST DOSE",0,2001,-1
NIDA-CTN-0002,VS,02_008499,SCREENING,3,DBP,DIASTOLIC BLOOD PRESSURE,VITAL SIGNS FORM,SITTING,064,MMHG,064,64,MMHG,Y,"BASELINE, ANY DAY PRIOR TO FIRST DOSE",0,2001,1
NIDA-CTN-0002,VS,02_008499,ACTIVE,11,DBP,DIASTOLIC BLOOD PRESSURE,VITAL SIGNS FORM,SITTING,092,MMHG,092,92,MMHG,,STUDY DAY 1,1,2001,1
NIDA-CTN-0002,VS,02_008499,ACTIVE,17,DBP,DIASTOLIC BLOOD PRESSURE,VITAL SIGNS FORM,SITTING,074,MMHG,074,74,MMHG,,STUDY DAY 2,2,2001,2
NIDA-CTN-0002,VS,02_008499,ACTIVE,23,DBP,DIASTOLIC BLOOD PRESSURE,VITAL SIGNS FORM,SITTING,060,MMHG,060,60,MMHG,,STUDY DAY 3,3,2001,3
NIDA-CTN-0002,VS,02_008499,ACTIVE,29,DBP,DIASTOLIC BLOOD PRESSURE,VITAL SIGNS FORM,SITTING,070,MMHG,070,70,MMHG,,STUDY DAY 7,7,2001,7
NIDA-CTN-0002,VS,02_008499,ACTIVE,35,DBP,DIASTOLIC BLOOD PRESSURE,VITAL SIGNS FORM,SITTING,072,MMHG,072,72,MMHG,,STUDY DAY 8,8,2001,8
NIDA-CTN-0002,VS,02_008499,ACTIVE,41,DBP,DIASTOLIC BLOOD PRESSURE,VITAL SIGNS FORM,SITTING,078,MMHG,078,78,MMHG,,STUDY DAY 10,10,2001,10
NIDA-CTN-0002,VS,02_008499,ACTIVE,47,DBP,DIASTOLIC BLOOD PRESSURE,VITAL SIGNS FORM,SITTING,076,MMHG,076,76,MMHG,,STUDY DAY 14,14,2001,14
NIDA-CTN-0002,VS,02_008499,SCREENING,6,HEIGHT,HEIGHT,PHYSICAL EXAMINATION FORM,,76,INCHES,76,76,INCHES,Y,"BASELINE, ANY DAY PRIOR TO FIRST DOSE",0,2001,1
NIDA-CTN-0002,VS,02_008499,SCREENING,4,PULSE,PULSE,VITAL SIGNS FORM,SITTING,66,BEATS/MINUTE,66,66,BEATS/MINUTE,Y,"BASELINE, ANY DAY PRIOR TO FIRST DOSE",0,2001,1
NIDA-CTN-0002,VS,02_008499,SCREENING,8,PULSE,PULSE,CLINICAL OPIATE WITHDRAWAL SCALE FORM,SITTING,82,BEATS/MINUTE,82,82,BEATS/MINUTE,Y,"BASELINE, ANY DAY PRIOR TO FIRST DOSE",0,2001,1
NIDA-CTN-0002,VS,02_008499,ACTIVE,12,PULSE,PULSE,VITAL SIGNS FORM,SITTING,82,BEATS/MINUTE,82,82,BEATS/MINUTE,,STUDY DAY 1,1,2001,1
NIDA-CTN-0002,VS,02_008499,ACTIVE,14,PULSE,PULSE,CLINICAL OPIATE WITHDRAWAL SCALE FORM,SITTING,82,BEATS/MINUTE,82,82,BEATS/MINUTE,,STUDY DAY 1,1,2001,1
NIDA-CTN-0002,VS,02_008499,ACTIVE,18,PULSE,PULSE,VITAL SIGNS FORM,SITTING,80,BEATS/MINUTE,80,80,BEATS/MINUTE,,STUDY DAY 2,2,2001,2
NIDA-CTN-0002,VS,02_008499,ACTIVE,20,PULSE,PULSE,CLINICAL OPIATE WITHDRAWAL SCALE FORM,SITTING,82,BEATS/MINUTE,82,82,BEATS/MINUTE,,STUDY DAY 2,2,2001,2
NIDA-CTN-0002,VS,02_008499,ACTIVE,24,PULSE,PULSE,VITAL SIGNS FORM,SITTING,92,BEATS/MINUTE,92,92,BEATS/MINUTE,,STUDY DAY 3,3,2001,3
NIDA-CTN-0002,VS,02_008499,ACTIVE,26,PULSE,PULSE,CLINICAL OPIATE WITHDRAWAL SCALE FORM,SITTING,92,BEATS/MINUTE,92,92,BEATS/MINUTE,,STUDY DAY 3,3,2001,3
NIDA-CTN-0002,VS,02_008499,ACTIVE,30,PULSE,PULSE,VITAL SIGNS FORM,SITTING,72,BEATS/MINUTE,72,72,BEATS/MINUTE,,STUDY DAY 7,7,2001,7
NIDA-CTN-0002,VS,02_008499,ACTIVE,32,PULSE,PULSE,CLINICAL OPIATE WITHDRAWAL SCALE FORM,SITTING,90,BEATS/MINUTE,90,90,BEATS/MINUTE,,STUDY DAY 7,7,2001,7
NIDA-CTN-0002,VS,02_008499,ACTIVE,36,PULSE,PULSE,VITAL SIGNS FORM,SITTING,84,BEATS/MINUTE,84,84,BEATS/MINUTE,,STUDY DAY 8,8,2001,8
NIDA-CTN-0002,VS,02_008499,ACTIVE,38,PULSE,PULSE,CLINICAL OPIATE WITHDRAWAL SCALE FORM,SITTING,84,BEATS/MINUTE,84,84,BEATS/MINUTE,,STUDY DAY 8,8,2001,8
NIDA-CTN-0002,VS,02_008499,ACTIVE,42,PULSE,PULSE,VITAL SIGNS FORM,SITTING,80,BEATS/MINUTE,80,80,BEATS/MINUTE,,STUDY DAY 10,10,2001,10
NIDA-CTN-0002,VS,02_008499,ACTIVE,44,PULSE,PULSE,CLINICAL OPIATE WITHDRAWAL SCALE FORM,SITTING,80,BEATS/MINUTE,80,80,BEATS/MINUTE,,STUDY DAY 10,10,2001,10
NIDA-CTN-0002,VS,02_008499,ACTIVE,48,PULSE,PULSE,VITAL SIGNS FORM,SITTING,84,BEATS/MINUTE,84,84,BEATS/MINUTE,,STUDY DAY 14,14,2001,14
NIDA-CTN-0002,VS,02_008499,ACTIVE,50,PULSE,PULSE,CLINICAL OPIATE WITHDRAWAL SCALE FORM,SITTING,84,BEATS/MINUTE,84,84,BEATS/MINUTE,,STUDY DAY 14,14,2001,14
NIDA-CTN-0002,VS,02_008499,FOLLOW-UP 1,51,PULSE,PULSE,CLINICAL OPIATE WITHDRAWAL SCALE FORM,SITTING,78,BEATS/MINUTE,78,78,BEATS/MINUTE,,FOLLOW-UP 1,15,2001,35
NIDA-CTN-0002,VS,02_008499,SCREENING,5,RESP,RESPIRATIONS,VITAL SIGNS FORM,SITTING,12,BREATHS/MIN,12,12,BREATHS/MIN,Y,"BASELINE, ANY DAY PRIOR TO FIRST DOSE",0,2001,1
NIDA-CTN-0002,VS,02_008499,ACTIVE,13,RESP,RESPIRATIONS,VITAL SIGNS FORM,SITTING,10,BREATHS/MIN,10,10,BREATHS/MIN,,STUDY DAY 1,1,2001,1
NIDA-CTN-0002,VS,02_008499,ACTIVE,19,RESP,RESPIRATIONS,VITAL SIGNS FORM,SITTING,10,BREATHS/MIN,10,10,BREATHS/MIN,,STUDY DAY 2,2,2001,2
NIDA-CTN-0002,VS,02_008499,ACTIVE,25,RESP,RESPIRATIONS,VITAL SIGNS FORM,SITTING,12,BREATHS/MIN,12,12,BREATHS/MIN,,STUDY DAY 3,3,2001,3
NIDA-CTN-0002,VS,02_008499,ACTIVE,31,RESP,RESPIRATIONS,VITAL SIGNS FORM,SITTING,12,BREATHS/MIN,12,12,BREATHS/MIN,,STUDY DAY 7,7,2001,7
NIDA-CTN-0002,VS,02_008499,ACTIVE,37,RESP,RESPIRATIONS,VITAL SIGNS FORM,SITTING,10,BREATHS/MIN,10,10,BREATHS/MIN,,STUDY DAY 8,8,2001,8
NIDA-CTN-0002,VS,02_008499,ACTIVE,43,RESP,RESPIRATIONS,VITAL SIGNS FORM,SITTING,10,BREATHS/MIN,10,10,BREATHS/MIN,,STUDY DAY 10,10,2001,10
NIDA-CTN-0002,VS,02_008499,ACTIVE,49,RESP,RESPIRATIONS,VITAL SIGNS FORM,SITTING,10,BREATHS/MIN,10,10,BREATHS/MIN,,STUDY DAY 14,14,2001,14
NIDA-CTN-0002,VS,02_008499,SCREENING,2,SBP,SYSTOLIC BLOOD PRESSURE,VITAL SIGNS FORM,SITTING,128,MMHG,128,128,MMHG,Y,"BASELINE, ANY DAY PRIOR TO FIRST DOSE",0,2001,1
NIDA-CTN-0002,VS,02_008499,ACTIVE,10,SBP,SYSTOLIC BLOOD PRESSURE,VITAL SIGNS FORM,SITTING,138,MMHG,138,138,MMHG,,STUDY DAY 1,1,2001,1
NIDA-CTN-0002,VS,02_008499,ACTIVE,16,SBP,SYSTOLIC BLOOD PRESSURE,VITAL SIGNS FORM,SITTING,112,MMHG,112,112,MMHG,,STUDY DAY 2,2,2001,2
NIDA-CTN-0002,VS,02_008499,ACTIVE,22,SBP,SYSTOLIC BLOOD PRESSURE,VITAL SIGNS FORM,SITTING,132,MMHG,132,132,MMHG,,STUDY DAY 3,3,2001,3
NIDA-CTN-0002,VS,02_008499,ACTIVE,28,SBP,SYSTOLIC BLOOD PRESSURE,VITAL SIGNS FORM,SITTING,128,MMHG,128,128,MMHG,,STUDY DAY 7,7,2001,7
NIDA-CTN-0002,VS,02_008499,ACTIVE,34,SBP,SYSTOLIC BLOOD PRESSURE,VITAL SIGNS FORM,SITTING,124,MMHG,124,124,MMHG,,STUDY DAY 8,8,2001,8
NIDA-CTN-0002,VS,02_008499,ACTIVE,40,SBP,SYSTOLIC BLOOD PRESSURE,VITAL SIGNS FORM,SITTING,114,MMHG,114,114,MMHG,,STUDY DAY 10,10,2001,10
NIDA-CTN-0002,VS,02_008499,ACTIVE,46,SBP,SYSTOLIC BLOOD PRESSURE,VITAL SIGNS FORM,SITTING,152,MMHG,152,152,MMHG,,STUDY DAY 14,14,2001,14
NIDA-CTN-0002,VS,02_008499,SCREENING,1,TEMP,TEMPERATURE,VITAL SIGNS FORM,SITTING,99.6,F,99.6,99.6,F,Y,"BASELINE, ANY DAY PRIOR TO FIRST DOSE",0,2001,1
NIDA-CTN-0002,VS,02_008499,ACTIVE,9,TEMP,TEMPERATURE,VITAL SIGNS FORM,SITTING,98.8,F,98.8,98.8,F,,STUDY DAY 1,1,2001,1
NIDA-CTN-0002,VS,02_008499,ACTIVE,15,TEMP,TEMPERATURE,VITAL SIGNS FORM,SITTING,99.6,F,99.6,99.6,F,,STUDY DAY 2,2,2001,2
NIDA-CTN-0002,VS,02_008499,ACTIVE,21,TEMP,TEMPERATURE,VITAL SIGNS FORM,SITTING,99.8,F,99.8,99.8,F,,STUDY DAY 3,3,2001,3
NIDA-CTN-0002,VS,02_008499,ACTIVE,27,TEMP,TEMPERATURE,VITAL SIGNS FORM,SITTING,99.0,F,99.0,99,F,,STUDY DAY 7,7,2001,7
NIDA-CTN-0002,VS,02_008499,ACTIVE,33,TEMP,TEMPERATURE,VITAL SIGNS FORM,SITTING,98.8,F,98.8,98.8,F,,STUDY DAY 8,8,2001,8
NIDA-CTN-0002,VS,02_008499,ACTIVE,39,TEMP,TEMPERATURE,VITAL SIGNS FORM,SITTING,98.4,F,98.4,98.4,F,,STUDY DAY 10,10,2001,10
NIDA-CTN-0002,VS,02_008499,ACTIVE,45,TEMP,TEMPERATURE,VITAL SIGNS FORM,SITTING,99.2,F,99.2,99.2,F,,STUDY DAY 14,14,2001,14
NIDA-CTN-0002,VS,02_008499,SCREENING,7,WEIGHT,WEIGHT,PHYSICAL EXAMINATION FORM,,154,POUNDS,154,154,POUNDS,Y,"BASELINE, ANY DAY PRIOR TO FIRST DOSE",0,2001,1
NIDA-CTN-0002,VS,02_008740,SCREENING,3,DBP,DIASTOLIC BLOOD PRESSURE,VITAL SIGNS FORM,SITTING,083,MMHG,083,83,MMHG,Y,"BASELINE, ANY DAY PRIOR TO FIRST DOSE",0,2001,1
NIDA-CTN-0002,VS,02_008740,ACTIVE,11,DBP,DIASTOLIC BLOOD PRESSURE,VITAL SIGNS FORM,SITTING,080,MMHG,080,80,MMHG,,STUDY DAY 2,2,2001,2
NIDA-CTN-0002,VS,02_008740,ACTIVE,17,DBP,DIASTOLIC BLOOD PRESSURE,VITAL SIGNS FORM,SITTING,080,MMHG,080,80,MMHG,,STUDY DAY 3,3,2001,3
NIDA-CTN-0002,VS,02_008740,ACTIVE,23,DBP,DIASTOLIC BLOOD PRESSURE,VITAL SIGNS FORM,SITTING,076,MMHG,076,76,MMHG,,STUDY DAY 8,8,2001,8
NIDA-CTN-0002,VS,02_008740,FOLLOW-UP 1,29,DBP,DIASTOLIC BLOOD PRESSURE,VITAL SIGNS FORM,SITTING,073,MMHG,073,73,MMHG,,FOLLOW-UP 1,15,2001,35
NIDA-CTN-0002,VS,02_008740,SCREENING,6,HEIGHT,HEIGHT,PHYSICAL EXAMINATION FORM,,60,INCHES,60,60,INCHES,Y,"BASELINE, ANY DAY PRIOR TO FIRST DOSE",0,2001,1
NIDA-CTN-0002,VS,02_008740,SCREENING,4,PULSE,PULSE,VITAL SIGNS FORM,SITTING,80,BEATS/MINUTE,80,80,BEATS/MINUTE,Y,"BASELINE, ANY DAY PRIOR TO FIRST DOSE",0,2001,1
NIDA-CTN-0002,VS,02_008740,SCREENING,8,PULSE,PULSE,CLINICAL OPIATE WITHDRAWAL SCALE FORM,SITTING,80,BEATS/MINUTE,80,80,BEATS/MINUTE,Y,"BASELINE, ANY DAY PRIOR TO FIRST DOSE",0,2001,1
NIDA-CTN-0002,VS,02_008740,ACTIVE,12,PULSE,PULSE,VITAL SIGNS FORM,SITTING,101,BEATS/MINUTE,101,101,BEATS/MINUTE,,STUDY DAY 2,2,2001,2
NIDA-CTN-0002,VS,02_008740,ACTIVE,14,PULSE,PULSE,CLINICAL OPIATE WITHDRAWAL SCALE FORM,SITTING,101,BEATS/MINUTE,101,101,BEATS/MINUTE,,STUDY DAY 2,2,2001,2
NIDA-CTN-0002,VS,02_008740,ACTIVE,18,PULSE,PULSE,VITAL SIGNS FORM,SITTING,84,BEATS/MINUTE,84,84,BEATS/MINUTE,,STUDY DAY 3,3,2001,3
NIDA-CTN-0002,VS,02_008740,ACTIVE,20,PULSE,PULSE,CLINICAL OPIATE WITHDRAWAL SCALE FORM,SITTING,84,BEATS/MINUTE,84,84,BEATS/MINUTE,,STUDY DAY 3,3,2001,3
NIDA-CTN-0002,VS,02_008740,ACTIVE,24,PULSE,PULSE,VITAL SIGNS FORM,SITTING,107,BEATS/MINUTE,107,107,BEATS/MINUTE,,STUDY DAY 8,8,2001,8
NIDA-CTN-0002,VS,02_008740,ACTIVE,26,PULSE,PULSE,CLINICAL OPIATE WITHDRAWAL SCALE FORM,SITTING,107,BEATS/MINUTE,107,107,BEATS/MINUTE,,STUDY DAY 8,8,2001,8
NIDA-CTN-0002,VS,02_008740,FOLLOW-UP 1,30,PULSE,PULSE,VITAL SIGNS FORM,SITTING,95,BEATS/MINUTE,95,95,BEATS/MINUTE,,FOLLOW-UP 1,15,2001,35
NIDA-CTN-0002,VS,02_008740,FOLLOW-UP 1,32,PULSE,PULSE,CLINICAL OPIATE WITHDRAWAL SCALE FORM,SITTING,95,BEATS/MINUTE,95,95,BEATS/MINUTE,,FOLLOW-UP 1,15,2001,35
NIDA-CTN-0002,VS,02_008740,SCREENING,5,RESP,RESPIRATIONS,VITAL SIGNS FORM,SITTING,16,BREATHS/MIN,16,16,BREATHS/MIN,Y,"BASELINE, ANY DAY PRIOR TO FIRST DOSE",0,2001,1
NIDA-CTN-0002,VS,02_008740,ACTIVE,13,RESP,RESPIRATIONS,VITAL SIGNS FORM,SITTING,24,BREATHS/MIN,24,24,BREATHS/MIN,,STUDY DAY 2,2,2001,2
NIDA-CTN-0002,VS,02_008740,ACTIVE,19,RESP,RESPIRATIONS,VITAL SIGNS FORM,SITTING,20,BREATHS/MIN,20,20,BREATHS/MIN,,STUDY DAY 3,3,2001,3
NIDA-CTN-0002,VS,02_008740,ACTIVE,25,RESP,RESPIRATIONS,VITAL SIGNS FORM,SITTING,16,BREATHS/MIN,16,16,BREATHS/MIN,,STUDY DAY 8,8,2001,8
NIDA-CTN-0002,VS,02_008740,FOLLOW-UP 1,31,RESP,RESPIRATIONS,VITAL SIGNS FORM,SITTING,16,BREATHS/MIN,16,16,BREATHS/MIN,,FOLLOW-UP 1,15,2001,35
NIDA-CTN-0002,VS,02_008740,SCREENING,2,SBP,SYSTOLIC BLOOD PRESSURE,VITAL SIGNS FORM,SITTING,107,MMHG,107,107,MMHG,Y,"BASELINE, ANY DAY PRIOR TO FIRST DOSE",0,2001,1
NIDA-CTN-0002,VS,02_008740,ACTIVE,10,SBP,SYSTOLIC BLOOD PRESSURE,VITAL SIGNS FORM,SITTING,133,MMHG,133,133,MMHG,,STUDY DAY 2,2,2001,2
NIDA-CTN-0002,VS,02_008740,ACTIVE,16,SBP,SYSTOLIC BLOOD PRESSURE,VITAL SIGNS FORM,SITTING,119,MMHG,119,119,MMHG,,STUDY DAY 3,3,2001,3
NIDA-CTN-0002,VS,02_008740,ACTIVE,22,SBP,SYSTOLIC BLOOD PRESSURE,VITAL SIGNS FORM,SITTING,143,MMHG,143,143,MMHG,,STUDY DAY 8,8,2001,8
NIDA-CTN-0002,VS,02_008740,FOLLOW-UP 1,28,SBP,SYSTOLIC BLOOD PRESSURE,VITAL SIGNS FORM,SITTING,111,MMHG,111,111,MMHG,,FOLLOW-UP 1,15,2001,35
NIDA-CTN-0002,VS,02_008740,SCREENING,1,TEMP,TEMPERATURE,VITAL SIGNS FORM,SITTING,97.7,F,97.7,97.7,F,Y,"BASELINE, ANY DAY PRIOR TO FIRST DOSE",0,2001,1
NIDA-CTN-0002,VS,02_008740,ACTIVE,9,TEMP,TEMPERATURE,VITAL SIGNS FORM,SITTING,98.0,F,98.0,98,F,,STUDY DAY 2,2,2001,2
NIDA-CTN-0002,VS,02_008740,ACTIVE,15,TEMP,TEMPERATURE,VITAL SIGNS FORM,SITTING,98.2,F,98.2,98.2,F,,STUDY DAY 3,3,2001,3
NIDA-CTN-0002,VS,02_008740,ACTIVE,21,TEMP,TEMPERATURE,VITAL SIGNS FORM,SITTING,98.9,F,98.9,98.9,F,,STUDY DAY 8,8,2001,8
NIDA-CTN-0002,VS,02_008740,FOLLOW-UP 1,27,TEMP,TEMPERATURE,VITAL SIGNS FORM,SITTING,98.5,F,98.5,98.5,F,,FOLLOW-UP 1,15,2001,35
NIDA-CTN-0002,VS,02_008740,SCREENING,7,WEIGHT,WEIGHT,PHYSICAL EXAMINATION FORM,,112,POUNDS,112,112,POUNDS,Y,"BASELINE, ANY DAY PRIOR TO FIRST DOSE",0,2001,1
NIDA-CTN-0002,VS,02_009190,SCREENING,3,DBP,DIASTOLIC BLOOD PRESSURE,VITAL SIGNS FORM,SITTING,072,MMHG,072,72,MMHG,Y,"BASELINE, ANY DAY PRIOR TO FIRST DOSE",0,2001,-2
NIDA-CTN-0002,VS,02_009190,ACTIVE,11,DBP,DIASTOLIC BLOOD PRESSURE,VITAL SIGNS FORM,SITTING,072,MMHG,072,72,MMHG,,STUDY DAY 1,1,2001,1
NIDA-CTN-0002,VS,02_009190,ACTIVE,17,DBP,DIASTOLIC BLOOD PRESSURE,VITAL SIGNS FORM,SITTING,084,MMHG,084,84,MMHG,,STUDY DAY 2,2,2001,2
NIDA-CTN-0002,VS,02_009190,ACTIVE,23,DBP,DIASTOLIC BLOOD PRESSURE,VITAL SIGNS FORM,SITTING,070,MMHG,070,70,MMHG,,STUDY DAY 3,3,2001,3
NIDA-CTN-0002,VS,02_009190,ACTIVE,29,DBP,DIASTOLIC BLOOD PRESSURE,VITAL SIGNS FORM,SITTING,064,MMHG,064,64,MMHG,,STUDY DAY 6,6,2001,6
NIDA-CTN-0002,VS,02_009190,ACTIVE,35,DBP,DIASTOLIC BLOOD PRESSURE,VITAL SIGNS FORM,SITTING,066,MMHG,066,66,MMHG,,STUDY DAY 7,7,2001,7
NIDA-CTN-0002,VS,02_009190,ACTIVE,41,DBP,DIASTOLIC BLOOD PRESSURE,VITAL SIGNS FORM,SITTING,058,MMHG,058,58,MMHG,,STUDY DAY 9,9,2001,9
NIDA-CTN-0002,VS,02_009190,ACTIVE,47,DBP,DIASTOLIC BLOOD PRESSURE,VITAL SIGNS FORM,SITTING,078,MMHG,078,78,MMHG,,STUDY DAY 10,10,2001,10
NIDA-CTN-0002,VS,02_009190,ACTIVE,53,DBP,DIASTOLIC BLOOD PRESSURE,VITAL SIGNS FORM,SITTING,084,MMHG,084,84,MMHG,,STUDY DAY 13,13,2001,13
NIDA-CTN-0002,VS,02_009190,ACTIVE,59,DBP,DIASTOLIC BLOOD PRESSURE,VITAL SIGNS FORM,SITTING,084,MMHG,084,84,MMHG,,STUDY DAY 14,14,2001,14
NIDA-CTN-0002,VS,02_009190,SCREENING,7,HEIGHT,HEIGHT,PHYSICAL EXAMINATION FORM,,65,INCHES,65,65,INCHES,Y,"BASELINE, ANY DAY PRIOR TO FIRST DOSE",0,2001,1
NIDA-CTN-0002,VS,02_009190,SCREENING,4,PULSE,PULSE,VITAL SIGNS FORM,SITTING,92,BEATS/MINUTE,92,92,BEATS/MINUTE,Y,"BASELINE, ANY DAY PRIOR TO FIRST DOSE",0,2001,-2
NIDA-CTN-0002,VS,02_009190,SCREENING,6,PULSE,PULSE,CLINICAL OPIATE WITHDRAWAL SCALE FORM,SITTING,92,BEATS/MINUTE,92,92,BEATS/MINUTE,Y,"BASELINE, ANY DAY PRIOR TO FIRST DOSE",0,2001,-2
NIDA-CTN-0002,VS,02_009190,ACTIVE,12,PULSE,PULSE,VITAL SIGNS FORM,SITTING,72,BEATS/MINUTE,72,72,BEATS/MINUTE,,STUDY DAY 1,1,2001,1
NIDA-CTN-0002,VS,02_009190,ACTIVE,14,PULSE,PULSE,CLINICAL OPIATE WITHDRAWAL SCALE FORM,SITTING,96,BEATS/MINUTE,96,96,BEATS/MINUTE,,STUDY DAY 1,1,2001,1
NIDA-CTN-0002,VS,02_009190,ACTIVE,18,PULSE,PULSE,VITAL SIGNS FORM,SITTING,72,BEATS/MINUTE,72,72,BEATS/MINUTE,,STUDY DAY 2,2,2001,2
NIDA-CTN-0002,VS,02_009190,ACTIVE,20,PULSE,PULSE,CLINICAL OPIATE WITHDRAWAL SCALE FORM,SITTING,72,BEATS/MINUTE,72,72,BEATS/MINUTE,,STUDY DAY 2,2,2001,2
NIDA-CTN-0002,VS,02_009190,ACTIVE,24,PULSE,PULSE,VITAL SIGNS FORM,SITTING,88,BEATS/MINUTE,88,88,BEATS/MINUTE,,STUDY DAY 3,3,2001,3
NIDA-CTN-0002,VS,02_009190,ACTIVE,26,PULSE,PULSE,CLINICAL OPIATE WITHDRAWAL SCALE FORM,SITTING,88,BEATS/MINUTE,88,88,BEATS/MINUTE,,STUDY DAY 3,3,2001,3
NIDA-CTN-0002,VS,02_009190,ACTIVE,30,PULSE,PULSE,VITAL SIGNS FORM,SITTING,96,BEATS/MINUTE,96,96,BEATS/MINUTE,,STUDY DAY 6,6,2001,6
NIDA-CTN-0002,VS,02_009190,ACTIVE,32,PULSE,PULSE,CLINICAL OPIATE WITHDRAWAL SCALE FORM,SITTING,96,BEATS/MINUTE,96,96,BEATS/MINUTE,,STUDY DAY 6,6,2001,6
NIDA-CTN-0002,VS,02_009190,ACTIVE,36,PULSE,PULSE,VITAL SIGNS FORM,SITTING,100,BEATS/MINUTE,100,100,BEATS/MINUTE,,STUDY DAY 7,7,2001,7
NIDA-CTN-0002,VS,02_009190,ACTIVE,38,PULSE,PULSE,CLINICAL OPIATE WITHDRAWAL SCALE FORM,SITTING,100,BEATS/MINUTE,100,100,BEATS/MINUTE,,STUDY DAY 7,7,2001,7
NIDA-CTN-0002,VS,02_009190,ACTIVE,42,PULSE,PULSE,VITAL SIGNS FORM,SITTING,106,BEATS/MINUTE,106,106,BEATS/MINUTE,,STUDY DAY 9,9,2001,9
NIDA-CTN-0002,VS,02_009190,ACTIVE,44,PULSE,PULSE,CLINICAL OPIATE WITHDRAWAL SCALE FORM,SITTING,106,BEATS/MINUTE,106,106,BEATS/MINUTE,,STUDY DAY 9,9,2001,9
NIDA-CTN-0002,VS,02_009190,ACTIVE,48,PULSE,PULSE,VITAL SIGNS FORM,SITTING,88,BEATS/MINUTE,88,88,BEATS/MINUTE,,STUDY DAY 10,10,2001,10
NIDA-CTN-0002,VS,02_009190,ACTIVE,50,PULSE,PULSE,CLINICAL OPIATE WITHDRAWAL SCALE FORM,SITTING,88,BEATS/MINUTE,88,88,BEATS/MINUTE,,STUDY DAY 10,10,2001,10
NIDA-CTN-0002,VS,02_009190,ACTIVE,54,PULSE,PULSE,VITAL SIGNS FORM,SITTING,84,BEATS/MINUTE,84,84,BEATS/MINUTE,,STUDY DAY 13,13,2001,13
NIDA-CTN-0002,VS,02_009190,ACTIVE,56,PULSE,PULSE,CLINICAL OPIATE WITHDRAWAL SCALE FORM,SITTING,84,BEATS/MINUTE,84,84,BEATS/MINUTE,,STUDY DAY 13,13,2001,13
NIDA-CTN-0002,VS,02_009190,ACTIVE,60,PULSE,PULSE,VITAL SIGNS FORM,SITTING,92,BEATS/MINUTE,92,92,BEATS/MINUTE,,STUDY DAY 14,14,2001,14
NIDA-CTN-0002,VS,02_009190,ACTIVE,62,PULSE,PULSE,CLINICAL OPIATE WITHDRAWAL SCALE FORM,SITTING,92,BEATS/MINUTE,92,92,BEATS/MINUTE,,STUDY DAY 14,14,2001,14
NIDA-CTN-0002,VS,02_009190,SCREENING,5,RESP,RESPIRATIONS,VITAL SIGNS FORM,SITTING,16,BREATHS/MIN,16,16,BREATHS/MIN,Y,"BASELINE, ANY DAY PRIOR TO FIRST DOSE",0,2001,-2
NIDA-CTN-0002,VS,02_009190,ACTIVE,13,RESP,RESPIRATIONS,VITAL SIGNS FORM,SITTING,10,BREATHS/MIN,10,10,BREATHS/MIN,,STUDY DAY 1,1,2001,1
NIDA-CTN-0002,VS,02_009190,ACTIVE,19,RESP,RESPIRATIONS,VITAL SIGNS FORM,SITTING,10,BREATHS/MIN,10,10,BREATHS/MIN,,STUDY DAY 2,2,2001,2
NIDA-CTN-0002,VS,02_009190,ACTIVE,25,RESP,RESPIRATIONS,VITAL SIGNS FORM,SITTING,12,BREATHS/MIN,12,12,BREATHS/MIN,,STUDY DAY 3,3,2001,3
NIDA-CTN-0002,VS,02_009190,ACTIVE,31,RESP,RESPIRATIONS,VITAL SIGNS FORM,SITTING,12,BREATHS/MIN,12,12,BREATHS/MIN,,STUDY DAY 6,6,2001,6
NIDA-CTN-0002,VS,02_009190,ACTIVE,37,RESP,RESPIRATIONS,VITAL SIGNS FORM,SITTING,12,BREATHS/MIN,12,12,BREATHS/MIN,,STUDY DAY 7,7,2001,7
NIDA-CTN-0002,VS,02_009190,ACTIVE,43,RESP,RESPIRATIONS,VITAL SIGNS FORM,SITTING,10,BREATHS/MIN,10,10,BREATHS/MIN,,STUDY DAY 9,9,2001,9
NIDA-CTN-0002,VS,02_009190,ACTIVE,49,RESP,RESPIRATIONS,VITAL SIGNS FORM,SITTING,16,BREATHS/MIN,16,16,BREATHS/MIN,,STUDY DAY 10,10,2001,10
NIDA-CTN-0002,VS,02_009190,ACTIVE,55,RESP,RESPIRATIONS,VITAL SIGNS FORM,SITTING,16,BREATHS/MIN,16,16,BREATHS/MIN,,STUDY DAY 13,13,2001,13
NIDA-CTN-0002,VS,02_009190,ACTIVE,61,RESP,RESPIRATIONS,VITAL SIGNS FORM,SITTING,12,BREATHS/MIN,12,12,BREATHS/MIN,,STUDY DAY 14,14,2001,14
NIDA-CTN-0002,VS,02_009190,SCREENING,2,SBP,SYSTOLIC BLOOD PRESSURE,VITAL SIGNS FORM,SITTING,112,MMHG,112,112,MMHG,Y,"BASELINE, ANY DAY PRIOR TO FIRST DOSE",0,2001,-2
NIDA-CTN-0002,VS,02_009190,ACTIVE,10,SBP,SYSTOLIC BLOOD PRESSURE,VITAL SIGNS FORM,SITTING,100,MMHG,100,100,MMHG,,STUDY DAY 1,1,2001,1
NIDA-CTN-0002,VS,02_009190,ACTIVE,16,SBP,SYSTOLIC BLOOD PRESSURE,VITAL SIGNS FORM,SITTING,122,MMHG,122,122,MMHG,,STUDY DAY 2,2,2001,2
NIDA-CTN-0002,VS,02_009190,ACTIVE,22,SBP,SYSTOLIC BLOOD PRESSURE,VITAL SIGNS FORM,SITTING,108,MMHG,108,108,MMHG,,STUDY DAY 3,3,2001,3
NIDA-CTN-0002,VS,02_009190,ACTIVE,28,SBP,SYSTOLIC BLOOD PRESSURE,VITAL SIGNS FORM,SITTING,100,MMHG,100,100,MMHG,,STUDY DAY 6,6,2001,6
NIDA-CTN-0002,VS,02_009190,ACTIVE,34,SBP,SYSTOLIC BLOOD PRESSURE,VITAL SIGNS FORM,SITTING,106,MMHG,106,106,MMHG,,STUDY DAY 7,7,2001,7
NIDA-CTN-0002,VS,02_009190,ACTIVE,40,SBP,SYSTOLIC BLOOD PRESSURE,VITAL SIGNS FORM,SITTING,104,MMHG,104,104,MMHG,,STUDY DAY 9,9,2001,9
NIDA-CTN-0002,VS,02_009190,ACTIVE,46,SBP,SYSTOLIC BLOOD PRESSURE,VITAL SIGNS FORM,SITTING,110,MMHG,110,110,MMHG,,STUDY DAY 10,10,2001,10
NIDA-CTN-0002,VS,02_009190,ACTIVE,52,SBP,SYSTOLIC BLOOD PRESSURE,VITAL SIGNS FORM,SITTING,132,MMHG,132,132,MMHG,,STUDY DAY 13,13,2001,13
NIDA-CTN-0002,VS,02_009190,ACTIVE,58,SBP,SYSTOLIC BLOOD PRESSURE,VITAL SIGNS FORM,SITTING,122,MMHG,122,122,MMHG,,STUDY DAY 14,14,2001,14
NIDA-CTN-0002,VS,02_009190,SCREENING,1,TEMP,TEMPERATURE,VITAL SIGNS FORM,SITTING,98.0,F,98.0,98,F,Y,"BASELINE, ANY DAY PRIOR TO FIRST DOSE",0,2001,-2
NIDA-CTN-0002,VS,02_009190,ACTIVE,9,TEMP,TEMPERATURE,VITAL SIGNS FORM,SITTING,97.0,F,97.0,97,F,,STUDY DAY 1,1,2001,1
NIDA-CTN-0002,VS,02_009190,ACTIVE,15,TEMP,TEMPERATURE,VITAL SIGNS FORM,SITTING,97.0,F,97.0,97,F,,STUDY DAY 2,2,2001,2
NIDA-CTN-0002,VS,02_009190,ACTIVE,21,TEMP,TEMPERATURE,VITAL SIGNS FORM,SITTING,98.0,F,98.0,98,F,,STUDY DAY 3,3,2001,3
NIDA-CTN-0002,VS,02_009190,ACTIVE,27,TEMP,TEMPERATURE,VITAL SIGNS FORM,SITTING,98.0,F,98.0,98,F,,STUDY DAY 6,6,2001,6
NIDA-CTN-0002,VS,02_009190,ACTIVE,33,TEMP,TEMPERATURE,VITAL SIGNS FORM,SITTING,98.0,F,98.0,98,F,,STUDY DAY 7,7,2001,7
NIDA-CTN-0002,VS,02_009190,ACTIVE,39,TEMP,TEMPERATURE,VITAL SIGNS FORM,SITTING,98.0,F,98.0,98,F,,STUDY DAY 9,9,2001,9
NIDA-CTN-0002,VS,02_009190,ACTIVE,45,TEMP,TEMPERATURE,VITAL SIGNS FORM,SITTING,97.0,F,97.0,97,F,,STUDY DAY 10,10,2001,10
NIDA-CTN-0002,VS,02_009190,ACTIVE,51,TEMP,TEMPERATURE,VITAL SIGNS FORM,SITTING,97.0,F,97.0,97,F,,STUDY DAY 13,13,2001,13
NIDA-CTN-0002,VS,02_009190,ACTIVE,57,TEMP,TEMPERATURE,VITAL SIGNS FORM,SITTING,96.0,F,96.0,96,F,,STUDY DAY 14,14,2001,14
NIDA-CTN-0002,VS,02_009190,SCREENING,8,WEIGHT,WEIGHT,PHYSICAL EXAMINATION FORM,,114,POUNDS,114,114,POUNDS,Y,"BASELINE, ANY DAY PRIOR TO FIRST DOSE",0,2001,1
NIDA-CTN-0002,VS,02_009452,SCREENING,4,DBP,DIASTOLIC BLOOD PRESSURE,VITAL SIGNS FORM,SITTING,094,MMHG,094,94,MMHG,Y,"BASELINE, ANY DAY PRIOR TO FIRST DOSE",0,2002,-6
NIDA-CTN-0002,VS,02_009452,ACTIVE,10,DBP,DIASTOLIC BLOOD PRESSURE,VITAL SIGNS FORM,SITTING,102,MMHG,102,102,MMHG,,STUDY DAY 1,1,2002,1
NIDA-CTN-0002,VS,02_009452,ACTIVE,16,DBP,DIASTOLIC BLOOD PRESSURE,VITAL SIGNS FORM,SITTING,088,MMHG,088,88,MMHG,,STUDY DAY 2,2,2002,2
NIDA-CTN-0002,VS,02_009452,ACTIVE,22,DBP,DIASTOLIC BLOOD PRESSURE,VITAL SIGNS FORM,SITTING,098,MMHG,098,98,MMHG,,STUDY DAY 3,3,2002,3
NIDA-CTN-0002,VS,02_009452,ACTIVE,28,DBP,DIASTOLIC BLOOD PRESSURE,VITAL SIGNS FORM,SITTING,068,MMHG,068,68,MMHG,,STUDY DAY 6,6,2002,6
NIDA-CTN-0002,VS,02_009452,ACTIVE,34,DBP,DIASTOLIC BLOOD PRESSURE,VITAL SIGNS FORM,SITTING,088,MMHG,088,88,MMHG,,STUDY DAY 8,8,2002,8
NIDA-CTN-0002,VS,02_009452,ACTIVE,40,DBP,DIASTOLIC BLOOD PRESSURE,VITAL SIGNS FORM,SITTING,090,MMHG,090,90,MMHG,,STUDY DAY 9,9,2002,9
NIDA-CTN-0002,VS,02_009452,ACTIVE,46,DBP,DIASTOLIC BLOOD PRESSURE,VITAL SIGNS FORM,SITTING,090,MMHG,090,90,MMHG,,STUDY DAY 10,10,2002,10
NIDA-CTN-0002,VS,02_009452,SCREENING,7,HEIGHT,HEIGHT,PHYSICAL EXAMINATION FORM,,71,INCHES,71,71,INCHES,Y,"BASELINE, ANY DAY PRIOR TO FIRST DOSE",0,2002,-6
NIDA-CTN-0002,VS,02_009452,SCREENING,1,PULSE,PULSE,CLINICAL OPIATE WITHDRAWAL SCALE FORM,SITTING,76,BEATS/MINUTE,76,76,BEATS/MINUTE,Y,"BASELINE, ANY DAY PRIOR TO FIRST DOSE",0,2002,-9
NIDA-CTN-0002,VS,02_009452,SCREENING,5,PULSE,PULSE,VITAL SIGNS FORM,SITTING,84,BEATS/MINUTE,84,84,BEATS/MINUTE,Y,"BASELINE, ANY DAY PRIOR TO FIRST DOSE",0,2002,-6
NIDA-CTN-0002,VS,02_009452,ACTIVE,11,PULSE,PULSE,VITAL SIGNS FORM,SITTING,86,BEATS/MINUTE,86,86,BEATS/MINUTE,,STUDY DAY 1,1,2002,1
NIDA-CTN-0002,VS,02_009452,ACTIVE,13,PULSE,PULSE,CLINICAL OPIATE WITHDRAWAL SCALE FORM,SITTING,84,BEATS/MINUTE,84,84,BEATS/MINUTE,,STUDY DAY 1,1,2002,1
NIDA-CTN-0002,VS,02_009452,ACTIVE,17,PULSE,PULSE,VITAL SIGNS FORM,SITTING,76,BEATS/MINUTE,76,76,BEATS/MINUTE,,STUDY DAY 2,2,2002,2
NIDA-CTN-0002,VS,02_009452,ACTIVE,19,PULSE,PULSE,CLINICAL OPIATE WITHDRAWAL SCALE FORM,SITTING,88,BEATS/MINUTE,88,88,BEATS/MINUTE,,STUDY DAY 2,2,2002,2
NIDA-CTN-0002,VS,02_009452,ACTIVE,23,PULSE,PULSE,VITAL SIGNS FORM,SITTING,82,BEATS/MINUTE,82,82,BEATS/MINUTE,,STUDY DAY 3,3,2002,3
NIDA-CTN-0002,VS,02_009452,ACTIVE,25,PULSE,PULSE,CLINICAL OPIATE WITHDRAWAL SCALE FORM,SITTING,84,BEATS/MINUTE,84,84,BEATS/MINUTE,,STUDY DAY 3,3,2002,3
NIDA-CTN-0002,VS,02_009452,ACTIVE,29,PULSE,PULSE,VITAL SIGNS FORM,SITTING,84,BEATS/MINUTE,84,84,BEATS/MINUTE,,STUDY DAY 6,6,2002,6
NIDA-CTN-0002,VS,02_009452,ACTIVE,31,PULSE,PULSE,CLINICAL OPIATE WITHDRAWAL SCALE FORM,SITTING,84,BEATS/MINUTE,84,84,BEATS/MINUTE,,STUDY DAY 6,6,2002,6
NIDA-CTN-0002,VS,02_009452,ACTIVE,35,PULSE,PULSE,VITAL SIGNS FORM,SITTING,72,BEATS/MINUTE,72,72,BEATS/MINUTE,,STUDY DAY 8,8,2002,8
NIDA-CTN-0002,VS,02_009452,ACTIVE,37,PULSE,PULSE,CLINICAL OPIATE WITHDRAWAL SCALE FORM,SITTING,76,BEATS/MINUTE,76,76,BEATS/MINUTE,,STUDY DAY 8,8,2002,8
NIDA-CTN-0002,VS,02_009452,ACTIVE,41,PULSE,PULSE,VITAL SIGNS FORM,SITTING,80,BEATS/MINUTE,80,80,BEATS/MINUTE,,STUDY DAY 9,9,2002,9
NIDA-CTN-0002,VS,02_009452,ACTIVE,43,PULSE,PULSE,CLINICAL OPIATE WITHDRAWAL SCALE FORM,SITTING,80,BEATS/MINUTE,80,80,BEATS/MINUTE,,STUDY DAY 9,9,2002,9
NIDA-CTN-0002,VS,02_009452,ACTIVE,47,PULSE,PULSE,VITAL SIGNS FORM,SITTING,84,BEATS/MINUTE,84,84,BEATS/MINUTE,,STUDY DAY 10,10,2002,10
NIDA-CTN-0002,VS,02_009452,ACTIVE,49,PULSE,PULSE,CLINICAL OPIATE WITHDRAWAL SCALE FORM,SITTING,84,BEATS/MINUTE,84,84,BEATS/MINUTE,,STUDY DAY 10,10,2002,10
NIDA-CTN-0002,VS,02_009452,SCREENING,6,RESP,RESPIRATIONS,VITAL SIGNS FORM,SITTING,20,BREATHS/MIN,20,20,BREATHS/MIN,Y,"BASELINE, ANY DAY PRIOR TO FIRST DOSE",0,2002,-6
NIDA-CTN-0002,VS,02_009452,ACTIVE,12,RESP,RESPIRATIONS,VITAL SIGNS FORM,SITTING,16,BREATHS/MIN,16,16,BREATHS/MIN,,STUDY DAY 1,1,2002,1
NIDA-CTN-0002,VS,02_009452,ACTIVE,18,RESP,RESPIRATIONS,VITAL SIGNS FORM,SITTING,16,BREATHS/MIN,16,16,BREATHS/MIN,,STUDY DAY 2,2,2002,2
NIDA-CTN-0002,VS,02_009452,ACTIVE,24,RESP,RESPIRATIONS,VITAL SIGNS FORM,SITTING,16,BREATHS/MIN,16,16,BREATHS/MIN,,STUDY DAY 3,3,2002,3
NIDA-CTN-0002,VS,02_009452,ACTIVE,30,RESP,RESPIRATIONS,VITAL SIGNS FORM,SITTING,24,BREATHS/MIN,24,24,BREATHS/MIN,,STUDY DAY 6,6,2002,6
NIDA-CTN-0002,VS,02_009452,ACTIVE,36,RESP,RESPIRATIONS,VITAL SIGNS FORM,SITTING,16,BREATHS/MIN,16,16,BREATHS/MIN,,STUDY DAY 8,8,2002,8
NIDA-CTN-0002,VS,02_009452,ACTIVE,42,RESP,RESPIRATIONS,VITAL SIGNS FORM,SITTING,20,BREATHS/MIN,20,20,BREATHS/MIN,,STUDY DAY 9,9,2002,9
NIDA-CTN-0002,VS,02_009452,ACTIVE,48,RESP,RESPIRATIONS,VITAL SIGNS FORM,SITTING,20,BREATHS/MIN,20,20,BREATHS/MIN,,STUDY DAY 10,10,2002,10
NIDA-CTN-0002,VS,02_009452,SCREENING,3,SBP,SYSTOLIC BLOOD PRESSURE,VITAL SIGNS FORM,SITTING,172,MMHG,172,172,MMHG,Y,"BASELINE, ANY DAY PRIOR TO FIRST DOSE",0,2002,-6
NIDA-CTN-0002,VS,02_009452,ACTIVE,9,SBP,SYSTOLIC BLOOD PRESSURE,VITAL SIGNS FORM,SITTING,150,MMHG,150,150,MMHG,,STUDY DAY 1,1,2002,1
NIDA-CTN-0002,VS,02_009452,ACTIVE,15,SBP,SYSTOLIC BLOOD PRESSURE,VITAL SIGNS FORM,SITTING,144,MMHG,144,144,MMHG,,STUDY DAY 2,2,2002,2
NIDA-CTN-0002,VS,02_009452,ACTIVE,21,SBP,SYSTOLIC BLOOD PRESSURE,VITAL SIGNS FORM,SITTING,132,MMHG,132,132,MMHG,,STUDY DAY 3,3,2002,3
NIDA-CTN-0002,VS,02_009452,ACTIVE,27,SBP,SYSTOLIC BLOOD PRESSURE,VITAL SIGNS FORM,SITTING,128,MMHG,128,128,MMHG,,STUDY DAY 6,6,2002,6
NIDA-CTN-0002,VS,02_009452,ACTIVE,33,SBP,SYSTOLIC BLOOD PRESSURE,VITAL SIGNS FORM,SITTING,138,MMHG,138,138,MMHG,,STUDY DAY 8,8,2002,8
NIDA-CTN-0002,VS,02_009452,ACTIVE,39,SBP,SYSTOLIC BLOOD PRESSURE,VITAL SIGNS FORM,SITTING,156,MMHG,156,156,MMHG,,STUDY DAY 9,9,2002,9
NIDA-CTN-0002,VS,02_009452,ACTIVE,45,SBP,SYSTOLIC BLOOD PRESSURE,VITAL SIGNS FORM,SITTING,164,MMHG,164,164,MMHG,,STUDY DAY 10,10,2002,10
NIDA-CTN-0002,VS,02_009452,SCREENING,2,TEMP,TEMPERATURE,VITAL SIGNS FORM,SITTING,98.0,F,98.0,98,F,Y,"BASELINE, ANY DAY PRIOR TO FIRST DOSE",0,2002,-6
NIDA-CTN-0002,VS,02_009452,ACTIVE,14,TEMP,TEMPERATURE,VITAL SIGNS FORM,SITTING,98.0,F,98.0,98,F,,STUDY DAY 2,2,2002,2
NIDA-CTN-0002,VS,02_009452,ACTIVE,20,TEMP,TEMPERATURE,VITAL SIGNS FORM,SITTING,99.0,F,99.0,99,F,,STUDY DAY 3,3,2002,3
NIDA-CTN-0002,VS,02_009452,ACTIVE,26,TEMP,TEMPERATURE,VITAL SIGNS FORM,SITTING,99.0,F,99.0,99,F,,STUDY DAY 6,6,2002,6
NIDA-CTN-0002,VS,02_009452,ACTIVE,32,TEMP,TEMPERATURE,VITAL SIGNS FORM,SITTING,97.0,F,97.0,97,F,,STUDY DAY 8,8,2002,8
NIDA-CTN-0002,VS,02_009452,ACTIVE,38,TEMP,TEMPERATURE,VITAL SIGNS FORM,SITTING,98.0,F,98.0,98,F,,STUDY DAY 9,9,2002,9
NIDA-CTN-0002,VS,02_009452,ACTIVE,44,TEMP,TEMPERATURE,VITAL SIGNS FORM,SITTING,98.0,F,98.0,98,F,,STUDY DAY 10,10,2002,10
NIDA-CTN-0002,VS,02_009452,SCREENING,8,WEIGHT,WEIGHT,PHYSICAL EXAMINATION FORM,,242,POUNDS,242,242,POUNDS,Y,"BASELINE, ANY DAY PRIOR TO FIRST DOSE",0,2002,-6
NIDA-CTN-0002,VS,02_011297,ACTIVE,4,DBP,DIASTOLIC BLOOD PRESSURE,VITAL SIGNS FORM,SITTING,086,MMHG,086,86,MMHG,Y,"BASELINE, ANY DAY PRIOR TO FIRST DOSE",0,2001,1
NIDA-CTN-0002,VS,02_011297,ACTIVE,11,DBP,DIASTOLIC BLOOD PRESSURE,VITAL SIGNS FORM,SITTING,096,MMHG,096,96,MMHG,,STUDY DAY 1,1,2001,1
NIDA-CTN-0002,VS,02_011297,ACTIVE,17,DBP,DIASTOLIC BLOOD PRESSURE,VITAL SIGNS FORM,SITTING,081,MMHG,081,81,MMHG,,STUDY DAY 2,2,2001,2
NIDA-CTN-0002,VS,02_011297,ACTIVE,23,DBP,DIASTOLIC BLOOD PRESSURE,VITAL SIGNS FORM,SITTING,081,MMHG,081,81,MMHG,,STUDY DAY 3,3,2001,3
NIDA-CTN-0002,VS,02_011297,ACTIVE,29,DBP,DIASTOLIC BLOOD PRESSURE,VITAL SIGNS FORM,SITTING,087,MMHG,087,87,MMHG,,STUDY DAY 4,4,2001,4
NIDA-CTN-0002,VS,02_011297,ACTIVE,7,HEIGHT,HEIGHT,PHYSICAL EXAMINATION FORM,,65,INCHES,65,65,INCHES,Y,"BASELINE, ANY DAY PRIOR TO FIRST DOSE",0,2001,1
NIDA-CTN-0002,VS,02_011297,SCREENING,1,PULSE,PULSE,CLINICAL OPIATE WITHDRAWAL SCALE FORM,SITTING,76,BEATS/MINUTE,76,76,BEATS/MINUTE,Y,"BASELINE, ANY DAY PRIOR TO FIRST DOSE",0,2001,1
NIDA-CTN-0002,VS,02_011297,ACTIVE,5,PULSE,PULSE,VITAL SIGNS FORM,SITTING,76,BEATS/MINUTE,76,76,BEATS/MINUTE,Y,"BASELINE, ANY DAY PRIOR TO FIRST DOSE",0,2001,1
NIDA-CTN-0002,VS,02_011297,ACTIVE,12,PULSE,PULSE,VITAL SIGNS FORM,SITTING,72,BEATS/MINUTE,72,72,BEATS/MINUTE,,STUDY DAY 1,1,2001,1
NIDA-CTN-0002,VS,02_011297,ACTIVE,14,PULSE,PULSE,CLINICAL OPIATE WITHDRAWAL SCALE FORM,SITTING,72,BEATS/MINUTE,72,72,BEATS/MINUTE,,STUDY DAY 1,1,2001,1
NIDA-CTN-0002,VS,02_011297,ACTIVE,18,PULSE,PULSE,VITAL SIGNS FORM,SITTING,96,BEATS/MINUTE,96,96,BEATS/MINUTE,,STUDY DAY 2,2,2001,2
NIDA-CTN-0002,VS,02_011297,ACTIVE,20,PULSE,PULSE,CLINICAL OPIATE WITHDRAWAL SCALE FORM,SITTING,96,BEATS/MINUTE,96,96,BEATS/MINUTE,,STUDY DAY 2,2,2001,2
NIDA-CTN-0002,VS,02_011297,ACTIVE,24,PULSE,PULSE,VITAL SIGNS FORM,SITTING,91,BEATS/MINUTE,91,91,BEATS/MINUTE,,STUDY DAY 3,3,2001,3
NIDA-CTN-0002,VS,02_011297,ACTIVE,26,PULSE,PULSE,CLINICAL OPIATE WITHDRAWAL SCALE FORM,SITTING,91,BEATS/MINUTE,91,91,BEATS/MINUTE,,STUDY DAY 3,3,2001,3
NIDA-CTN-0002,VS,02_011297,ACTIVE,30,PULSE,PULSE,VITAL SIGNS FORM,SITTING,86,BEATS/MINUTE,86,86,BEATS/MINUTE,,STUDY DAY 4,4,2001,4
NIDA-CTN-0002,VS,02_011297,ACTIVE,32,PULSE,PULSE,CLINICAL OPIATE WITHDRAWAL SCALE FORM,SITTING,86,BEATS/MINUTE,86,86,BEATS/MINUTE,,STUDY DAY 4,4,2001,4
NIDA-CTN-0002,VS,02_011297,FOLLOW-UP 1,33,PULSE,PULSE,CLINICAL OPIATE WITHDRAWAL SCALE FORM,SITTING,66,BEATS/MINUTE,66,66,BEATS/MINUTE,,FOLLOW-UP 1,15,2002,60
NIDA-CTN-0002,VS,02_011297,ACTIVE,6,RESP,RESPIRATIONS,VITAL SIGNS FORM,SITTING,18,BREATHS/MIN,18,18,BREATHS/MIN,Y,"BASELINE, ANY DAY PRIOR TO FIRST DOSE",0,2001,1
NIDA-CTN-0002,VS,02_011297,ACTIVE,13,RESP,RESPIRATIONS,VITAL SIGNS FORM,SITTING,18,BREATHS/MIN,18,18,BREATHS/MIN,,STUDY DAY 1,1,2001,1
NIDA-CTN-0002,VS,02_011297,ACTIVE,19,RESP,RESPIRATIONS,VITAL SIGNS FORM,SITTING,15,BREATHS/MIN,15,15,BREATHS/MIN,,STUDY DAY 2,2,2001,2
NIDA-CTN-0002,VS,02_011297,ACTIVE,25,RESP,RESPIRATIONS,VITAL SIGNS FORM,SITTING,14,BREATHS/MIN,14,14,BREATHS/MIN,,STUDY DAY 3,3,2001,3
NIDA-CTN-0002,VS,02_011297,ACTIVE,31,RESP,RESPIRATIONS,VITAL SIGNS FORM,SITTING,16,BREATHS/MIN,16,16,BREATHS/MIN,,STUDY DAY 4,4,2001,4
NIDA-CTN-0002,VS,02_011297,ACTIVE,3,SBP,SYSTOLIC BLOOD PRESSURE,VITAL SIGNS FORM,SITTING,138,MMHG,138,138,MMHG,Y,"BASELINE, ANY DAY PRIOR TO FIRST DOSE",0,2001,1
NIDA-CTN-0002,VS,02_011297,ACTIVE,10,SBP,SYSTOLIC BLOOD PRESSURE,VITAL SIGNS FORM,SITTING,136,MMHG,136,136,MMHG,,STUDY DAY 1,1,2001,1
NIDA-CTN-0002,VS,02_011297,ACTIVE,16,SBP,SYSTOLIC BLOOD PRESSURE,VITAL SIGNS FORM,SITTING,123,MMHG,123,123,MMHG,,STUDY DAY 2,2,2001,2
NIDA-CTN-0002,VS,02_011297,ACTIVE,22,SBP,SYSTOLIC BLOOD PRESSURE,VITAL SIGNS FORM,SITTING,124,MMHG,124,124,MMHG,,STUDY DAY 3,3,2001,3
NIDA-CTN-0002,VS,02_011297,ACTIVE,28,SBP,SYSTOLIC BLOOD PRESSURE,VITAL SIGNS FORM,SITTING,118,MMHG,118,118,MMHG,,STUDY DAY 4,4,2001,4
NIDA-CTN-0002,VS,02_011297,ACTIVE,2,TEMP,TEMPERATURE,VITAL SIGNS FORM,SITTING,98.2,F,98.2,98.2,F,Y,"BASELINE, ANY DAY PRIOR TO FIRST DOSE",0,2001,1
NIDA-CTN-0002,VS,02_011297,ACTIVE,9,TEMP,TEMPERATURE,VITAL SIGNS FORM,SITTING,98.2,F,98.2,98.2,F,,STUDY DAY 1,1,2001,1
NIDA-CTN-0002,VS,02_011297,ACTIVE,15,TEMP,TEMPERATURE,VITAL SIGNS FORM,SITTING,97.8,F,97.8,97.8,F,,STUDY DAY 2,2,2001,2
NIDA-CTN-0002,VS,02_011297,ACTIVE,21,TEMP,TEMPERATURE,VITAL SIGNS FORM,SITTING,99.4,F,99.4,99.4,F,,STUDY DAY 3,3,2001,3
NIDA-CTN-0002,VS,02_011297,ACTIVE,27,TEMP,TEMPERATURE,VITAL SIGNS FORM,SITTING,97.8,F,97.8,97.8,F,,STUDY DAY 4,4,2001,4
NIDA-CTN-0002,VS,02_011297,ACTIVE,8,WEIGHT,WEIGHT,PHYSICAL EXAMINATION FORM,,156,POUNDS,156,156,POUNDS,Y,"BASELINE, ANY DAY PRIOR TO FIRST DOSE",0,2001,1
NIDA-CTN-0002,VS,02_011526,SCREENING,3,DBP,DIASTOLIC BLOOD PRESSURE,VITAL SIGNS FORM,SITTING,090,MMHG,090,90,MMHG,Y,"BASELINE, ANY DAY PRIOR TO FIRST DOSE",0,2001,-1
NIDA-CTN-0002,VS,02_011526,ACTIVE,11,DBP,DIASTOLIC BLOOD PRESSURE,VITAL SIGNS FORM,SITTING,080,MMHG,080,80,MMHG,,STUDY DAY 1,1,2001,1
NIDA-CTN-0002,VS,02_011526,ACTIVE,17,DBP,DIASTOLIC BLOOD PRESSURE,VITAL SIGNS FORM,SITTING,080,MMHG,080,80,MMHG,,STUDY DAY 3,3,2001,3
NIDA-CTN-0002,VS,02_011526,ACTIVE,23,DBP,DIASTOLIC BLOOD PRESSURE,VITAL SIGNS FORM,SITTING,078,MMHG,078,78,MMHG,,STUDY DAY 4,4,2001,4
NIDA-CTN-0002,VS,02_011526,ACTIVE,29,DBP,DIASTOLIC BLOOD PRESSURE,VITAL SIGNS FORM,SITTING,074,MMHG,074,74,MMHG,,STUDY DAY 7,7,2001,7
NIDA-CTN-0002,VS,02_011526,ACTIVE,35,DBP,DIASTOLIC BLOOD PRESSURE,VITAL SIGNS FORM,SITTING,076,MMHG,076,76,MMHG,,STUDY DAY 8,8,2001,8
NIDA-CTN-0002,VS,02_011526,ACTIVE,41,DBP,DIASTOLIC BLOOD PRESSURE,VITAL SIGNS FORM,SITTING,084,MMHG,084,84,MMHG,,STUDY DAY 9,9,2001,9
NIDA-CTN-0002,VS,02_011526,ACTIVE,47,DBP,DIASTOLIC BLOOD PRESSURE,VITAL SIGNS FORM,SITTING,078,MMHG,078,78,MMHG,,STUDY DAY 14,14,2001,14
NIDA-CTN-0002,VS,02_011526,SCREENING,7,HEIGHT,HEIGHT,PHYSICAL EXAMINATION FORM,,69,INCHES,69,69,INCHES,Y,"BASELINE, ANY DAY PRIOR TO FIRST DOSE",0,2001,1
NIDA-CTN-0002,VS,02_011526,SCREENING,4,PULSE,PULSE,VITAL SIGNS FORM,SITTING,76,BEATS/MINUTE,76,76,BEATS/MINUTE,Y,"BASELINE, ANY DAY PRIOR TO FIRST DOSE",0,2001,-1
NIDA-CTN-0002,VS,02_011526,SCREENING,6,PULSE,PULSE,CLINICAL OPIATE WITHDRAWAL SCALE FORM,SITTING,76,BEATS/MINUTE,76,76,BEATS/MINUTE,Y,"BASELINE, ANY DAY PRIOR TO FIRST DOSE",0,2001,-1
NIDA-CTN-0002,VS,02_011526,ACTIVE,12,PULSE,PULSE,VITAL SIGNS FORM,SITTING,72,BEATS/MINUTE,72,72,BEATS/MINUTE,,STUDY DAY 1,1,2001,1
NIDA-CTN-0002,VS,02_011526,ACTIVE,14,PULSE,PULSE,CLINICAL OPIATE WITHDRAWAL SCALE FORM,SITTING,72,BEATS/MINUTE,72,72,BEATS/MINUTE,,STUDY DAY 1,1,2001,1
NIDA-CTN-0002,VS,02_011526,ACTIVE,18,PULSE,PULSE,VITAL SIGNS FORM,SITTING,76,BEATS/MINUTE,76,76,BEATS/MINUTE,,STUDY DAY 3,3,2001,3
NIDA-CTN-0002,VS,02_011526,ACTIVE,20,PULSE,PULSE,CLINICAL OPIATE WITHDRAWAL SCALE FORM,SITTING,76,BEATS/MINUTE,76,76,BEATS/MINUTE,,STUDY DAY 3,3,2001,3
NIDA-CTN-0002,VS,02_011526,ACTIVE,24,PULSE,PULSE,VITAL SIGNS FORM,SITTING,76,BEATS/MINUTE,76,76,BEATS/MINUTE,,STUDY DAY 4,4,2001,4
NIDA-CTN-0002,VS,02_011526,ACTIVE,26,PULSE,PULSE,CLINICAL OPIATE WITHDRAWAL SCALE FORM,SITTING,76,BEATS/MINUTE,76,76,BEATS/MINUTE,,STUDY DAY 4,4,2001,4
NIDA-CTN-0002,VS,02_011526,ACTIVE,30,PULSE,PULSE,VITAL SIGNS FORM,SITTING,80,BEATS/MINUTE,80,80,BEATS/MINUTE,,STUDY DAY 7,7,2001,7
NIDA-CTN-0002,VS,02_011526,ACTIVE,32,PULSE,PULSE,CLINICAL OPIATE WITHDRAWAL SCALE FORM,SITTING,80,BEATS/MINUTE,80,80,BEATS/MINUTE,,STUDY DAY 7,7,2001,7
NIDA-CTN-0002,VS,02_011526,ACTIVE,36,PULSE,PULSE,VITAL SIGNS FORM,SITTING,76,BEATS/MINUTE,76,76,BEATS/MINUTE,,STUDY DAY 8,8,2001,8
NIDA-CTN-0002,VS,02_011526,ACTIVE,38,PULSE,PULSE,CLINICAL OPIATE WITHDRAWAL SCALE FORM,SITTING,76,BEATS/MINUTE,76,76,BEATS/MINUTE,,STUDY DAY 8,8,2001,8
NIDA-CTN-0002,VS,02_011526,ACTIVE,42,PULSE,PULSE,VITAL SIGNS FORM,SITTING,84,BEATS/MINUTE,84,84,BEATS/MINUTE,,STUDY DAY 9,9,2001,9
NIDA-CTN-0002,VS,02_011526,ACTIVE,44,PULSE,PULSE,CLINICAL OPIATE WITHDRAWAL SCALE FORM,SITTING,84,BEATS/MINUTE,84,84,BEATS/MINUTE,,STUDY DAY 9,9,2001,9
NIDA-CTN-0002,VS,02_011526,ACTIVE,48,PULSE,PULSE,VITAL SIGNS FORM,SITTING,80,BEATS/MINUTE,80,80,BEATS/MINUTE,,STUDY DAY 14,14,2001,14
NIDA-CTN-0002,VS,02_011526,ACTIVE,50,PULSE,PULSE,CLINICAL OPIATE WITHDRAWAL SCALE FORM,SITTING,80,BEATS/MINUTE,80,80,BEATS/MINUTE,,STUDY DAY 14,14,2001,14
NIDA-CTN-0002,VS,02_011526,FOLLOW-UP 1,51,PULSE,PULSE,CLINICAL OPIATE WITHDRAWAL SCALE FORM,SITTING,84,BEATS/MINUTE,84,84,BEATS/MINUTE,,FOLLOW-UP 1,15,2001,32
NIDA-CTN-0002,VS,02_011526,SCREENING,5,RESP,RESPIRATIONS,VITAL SIGNS FORM,SITTING,16,BREATHS/MIN,16,16,BREATHS/MIN,Y,"BASELINE, ANY DAY PRIOR TO FIRST DOSE",0,2001,-1
NIDA-CTN-0002,VS,02_011526,ACTIVE,13,RESP,RESPIRATIONS,VITAL SIGNS FORM,SITTING,12,BREATHS/MIN,12,12,BREATHS/MIN,,STUDY DAY 1,1,2001,1
NIDA-CTN-0002,VS,02_011526,ACTIVE,19,RESP,RESPIRATIONS,VITAL SIGNS FORM,SITTING,16,BREATHS/MIN,16,16,BREATHS/MIN,,STUDY DAY 3,3,2001,3
NIDA-CTN-0002,VS,02_011526,ACTIVE,25,RESP,RESPIRATIONS,VITAL SIGNS FORM,SITTING,12,BREATHS/MIN,12,12,BREATHS/MIN,,STUDY DAY 4,4,2001,4
NIDA-CTN-0002,VS,02_011526,ACTIVE,31,RESP,RESPIRATIONS,VITAL SIGNS FORM,SITTING,14,BREATHS/MIN,14,14,BREATHS/MIN,,STUDY DAY 7,7,2001,7
NIDA-CTN-0002,VS,02_011526,ACTIVE,37,RESP,RESPIRATIONS,VITAL SIGNS FORM,SITTING,16,BREATHS/MIN,16,16,BREATHS/MIN,,STUDY DAY 8,8,2001,8
NIDA-CTN-0002,VS,02_011526,ACTIVE,43,RESP,RESPIRATIONS,VITAL SIGNS FORM,SITTING,16,BREATHS/MIN,16,16,BREATHS/MIN,,STUDY DAY 9,9,2001,9
NIDA-CTN-0002,VS,02_011526,ACTIVE,49,RESP,RESPIRATIONS,VITAL SIGNS FORM,SITTING,16,BREATHS/MIN,16,16,BREATHS/MIN,,STUDY DAY 14,14,2001,14
NIDA-CTN-0002,VS,02_011526,SCREENING,2,SBP,SYSTOLIC BLOOD PRESSURE,VITAL SIGNS FORM,SITTING,112,MMHG,112,112,MMHG,Y,"BASELINE, ANY DAY PRIOR TO FIRST DOSE",0,2001,-1
NIDA-CTN-0002,VS,02_011526,ACTIVE,10,SBP,SYSTOLIC BLOOD PRESSURE,VITAL SIGNS FORM,SITTING,104,MMHG,104,104,MMHG,,STUDY DAY 1,1,2001,1
NIDA-CTN-0002,VS,02_011526,ACTIVE,16,SBP,SYSTOLIC BLOOD PRESSURE,VITAL SIGNS FORM,SITTING,138,MMHG,138,138,MMHG,,STUDY DAY 3,3,2001,3
NIDA-CTN-0002,VS,02_011526,ACTIVE,22,SBP,SYSTOLIC BLOOD PRESSURE,VITAL SIGNS FORM,SITTING,102,MMHG,102,102,MMHG,,STUDY DAY 4,4,2001,4
NIDA-CTN-0002,VS,02_011526,ACTIVE,28,SBP,SYSTOLIC BLOOD PRESSURE,VITAL SIGNS FORM,SITTING,114,MMHG,114,114,MMHG,,STUDY DAY 7,7,2001,7
NIDA-CTN-0002,VS,02_011526,ACTIVE,34,SBP,SYSTOLIC BLOOD PRESSURE,VITAL SIGNS FORM,SITTING,112,MMHG,112,112,MMHG,,STUDY DAY 8,8,2001,8
NIDA-CTN-0002,VS,02_011526,ACTIVE,40,SBP,SYSTOLIC BLOOD PRESSURE,VITAL SIGNS FORM,SITTING,118,MMHG,118,118,MMHG,,STUDY DAY 9,9,2001,9
NIDA-CTN-0002,VS,02_011526,ACTIVE,46,SBP,SYSTOLIC BLOOD PRESSURE,VITAL SIGNS FORM,SITTING,112,MMHG,112,112,MMHG,,STUDY DAY 14,14,2001,14
NIDA-CTN-0002,VS,02_011526,SCREENING,1,TEMP,TEMPERATURE,VITAL SIGNS FORM,SITTING,98.0,F,98.0,98,F,Y,"BASELINE, ANY DAY PRIOR TO FIRST DOSE",0,2001,-1
NIDA-CTN-0002,VS,02_011526,ACTIVE,9,TEMP,TEMPERATURE,VITAL SIGNS FORM,SITTING,98.0,F,98.0,98,F,,STUDY DAY 1,1,2001,1
NIDA-CTN-0002,VS,02_011526,ACTIVE,15,TEMP,TEMPERATURE,VITAL SIGNS FORM,SITTING,97.0,F,97.0,97,F,,STUDY DAY 3,3,2001,3
NIDA-CTN-0002,VS,02_011526,ACTIVE,21,TEMP,TEMPERATURE,VITAL SIGNS FORM,SITTING,97.0,F,97.0,97,F,,STUDY DAY 4,4,2001,4
NIDA-CTN-0002,VS,02_011526,ACTIVE,27,TEMP,TEMPERATURE,VITAL SIGNS FORM,SITTING,97.0,F,97.0,97,F,,STUDY DAY 7,7,2001,7
NIDA-CTN-0002,VS,02_011526,ACTIVE,33,TEMP,TEMPERATURE,VITAL SIGNS FORM,SITTING,97.0,F,97.0,97,F,,STUDY DAY 8,8,2001,8
NIDA-CTN-0002,VS,02_011526,ACTIVE,39,TEMP,TEMPERATURE,VITAL SIGNS FORM,SITTING,97.0,F,97.0,97,F,,STUDY DAY 9,9,2001,9
NIDA-CTN-0002,VS,02_011526,ACTIVE,45,TEMP,TEMPERATURE,VITAL SIGNS FORM,SITTING,98.0,F,98.0,98,F,,STUDY DAY 14,14,2001,14
NIDA-CTN-0002,VS,02_011526,SCREENING,8,WEIGHT,WEIGHT,PHYSICAL EXAMINATION FORM,,158,POUNDS,158,158,POUNDS,Y,"BASELINE, ANY DAY PRIOR TO FIRST DOSE",0,2001,1
NIDA-CTN-0002,VS,02_011902,SCREENING,3,DBP,DIASTOLIC BLOOD PRESSURE,VITAL SIGNS FORM,SITTING,070,MMHG,070,70,MMHG,Y,"BASELINE, ANY DAY PRIOR TO FIRST DOSE",0,2001,1
NIDA-CTN-0002,VS,02_011902,ACTIVE,11,DBP,DIASTOLIC BLOOD PRESSURE,VITAL SIGNS FORM,SITTING,078,MMHG,078,78,MMHG,,STUDY DAY 2,2,2001,2
NIDA-CTN-0002,VS,02_011902,ACTIVE,17,DBP,DIASTOLIC BLOOD PRESSURE,VITAL SIGNS FORM,SITTING,092,MMHG,092,92,MMHG,,STUDY DAY 3,3,2001,3
NIDA-CTN-0002,VS,02_011902,ACTIVE,23,DBP,DIASTOLIC BLOOD PRESSURE,VITAL SIGNS FORM,SITTING,080,MMHG,080,80,MMHG,,STUDY DAY 4,4,2001,4
NIDA-CTN-0002,VS,02_011902,ACTIVE,29,DBP,DIASTOLIC BLOOD PRESSURE,VITAL SIGNS FORM,SITTING,070,MMHG,070,70,MMHG,,STUDY DAY 7,7,2001,7
NIDA-CTN-0002,VS,02_011902,ACTIVE,35,DBP,DIASTOLIC BLOOD PRESSURE,VITAL SIGNS FORM,SITTING,070,MMHG,070,70,MMHG,,STUDY DAY 8,8,2001,8
NIDA-CTN-0002,VS,02_011902,ACTIVE,41,DBP,DIASTOLIC BLOOD PRESSURE,VITAL SIGNS FORM,SITTING,070,MMHG,070,70,MMHG,,STUDY DAY 9,9,2001,9
NIDA-CTN-0002,VS,02_011902,ACTIVE,47,DBP,DIASTOLIC BLOOD PRESSURE,VITAL SIGNS FORM,SITTING,076,MMHG,076,76,MMHG,,STUDY DAY 10,10,2001,10
NIDA-CTN-0002,VS,02_011902,ACTIVE,53,DBP,DIASTOLIC BLOOD PRESSURE,VITAL SIGNS FORM,SITTING,076,MMHG,076,76,MMHG,,STUDY DAY 11,11,2001,11
NIDA-CTN-0002,VS,02_011902,SCREENING,6,HEIGHT,HEIGHT,PHYSICAL EXAMINATION FORM,,69,INCHES,69,69,INCHES,Y,"BASELINE, ANY DAY PRIOR TO FIRST DOSE",0,2001,1
NIDA-CTN-0002,VS,02_011902,SCREENING,4,PULSE,PULSE,VITAL SIGNS FORM,SITTING,68,BEATS/MINUTE,68,68,BEATS/MINUTE,Y,"BASELINE, ANY DAY PRIOR TO FIRST DOSE",0,2001,1
NIDA-CTN-0002,VS,02_011902,SCREENING,8,PULSE,PULSE,CLINICAL OPIATE WITHDRAWAL SCALE FORM,SITTING,68,BEATS/MINUTE,68,68,BEATS/MINUTE,Y,"BASELINE, ANY DAY PRIOR TO FIRST DOSE",0,2001,1
NIDA-CTN-0002,VS,02_011902,ACTIVE,12,PULSE,PULSE,VITAL SIGNS FORM,SITTING,72,BEATS/MINUTE,72,72,BEATS/MINUTE,,STUDY DAY 2,2,2001,2
NIDA-CTN-0002,VS,02_011902,ACTIVE,14,PULSE,PULSE,CLINICAL OPIATE WITHDRAWAL SCALE FORM,SITTING,72,BEATS/MINUTE,72,72,BEATS/MINUTE,,STUDY DAY 2,2,2001,2
NIDA-CTN-0002,VS,02_011902,ACTIVE,18,PULSE,PULSE,VITAL SIGNS FORM,SITTING,100,BEATS/MINUTE,100,100,BEATS/MINUTE,,STUDY DAY 3,3,2001,3
NIDA-CTN-0002,VS,02_011902,ACTIVE,20,PULSE,PULSE,CLINICAL OPIATE WITHDRAWAL SCALE FORM,SITTING,100,BEATS/MINUTE,100,100,BEATS/MINUTE,,STUDY DAY 3,3,2001,3
NIDA-CTN-0002,VS,02_011902,ACTIVE,24,PULSE,PULSE,VITAL SIGNS FORM,SITTING,70,BEATS/MINUTE,70,70,BEATS/MINUTE,,STUDY DAY 4,4,2001,4
NIDA-CTN-0002,VS,02_011902,ACTIVE,26,PULSE,PULSE,CLINICAL OPIATE WITHDRAWAL SCALE FORM,SITTING,70,BEATS/MINUTE,70,70,BEATS/MINUTE,,STUDY DAY 4,4,2001,4
NIDA-CTN-0002,VS,02_011902,ACTIVE,30,PULSE,PULSE,VITAL SIGNS FORM,SITTING,72,BEATS/MINUTE,72,72,BEATS/MINUTE,,STUDY DAY 7,7,2001,7
NIDA-CTN-0002,VS,02_011902,ACTIVE,32,PULSE,PULSE,CLINICAL OPIATE WITHDRAWAL SCALE FORM,SITTING,72,BEATS/MINUTE,72,72,BEATS/MINUTE,,STUDY DAY 7,7,2001,7
NIDA-CTN-0002,VS,02_011902,ACTIVE,36,PULSE,PULSE,VITAL SIGNS FORM,SITTING,68,BEATS/MINUTE,68,68,BEATS/MINUTE,,STUDY DAY 8,8,2001,8
NIDA-CTN-0002,VS,02_011902,ACTIVE,38,PULSE,PULSE,CLINICAL OPIATE WITHDRAWAL SCALE FORM,SITTING,68,BEATS/MINUTE,68,68,BEATS/MINUTE,,STUDY DAY 8,8,2001,8
NIDA-CTN-0002,VS,02_011902,ACTIVE,42,PULSE,PULSE,VITAL SIGNS FORM,SITTING,70,BEATS/MINUTE,70,70,BEATS/MINUTE,,STUDY DAY 9,9,2001,9
NIDA-CTN-0002,VS,02_011902,ACTIVE,44,PULSE,PULSE,CLINICAL OPIATE WITHDRAWAL SCALE FORM,SITTING,70,BEATS/MINUTE,70,70,BEATS/MINUTE,,STUDY DAY 9,9,2001,9
NIDA-CTN-0002,VS,02_011902,ACTIVE,48,PULSE,PULSE,VITAL SIGNS FORM,SITTING,78,BEATS/MINUTE,78,78,BEATS/MINUTE,,STUDY DAY 10,10,2001,10
NIDA-CTN-0002,VS,02_011902,ACTIVE,50,PULSE,PULSE,CLINICAL OPIATE WITHDRAWAL SCALE FORM,SITTING,78,BEATS/MINUTE,78,78,BEATS/MINUTE,,STUDY DAY 10,10,2001,10
NIDA-CTN-0002,VS,02_011902,ACTIVE,54,PULSE,PULSE,VITAL SIGNS FORM,SITTING,66,BEATS/MINUTE,66,66,BEATS/MINUTE,,STUDY DAY 11,11,2001,11
NIDA-CTN-0002,VS,02_011902,ACTIVE,56,PULSE,PULSE,CLINICAL OPIATE WITHDRAWAL SCALE FORM,SITTING,66,BEATS/MINUTE,66,66,BEATS/MINUTE,,STUDY DAY 11,11,2001,11
NIDA-CTN-0002,VS,02_011902,FOLLOW-UP 1,57,PULSE,PULSE,CLINICAL OPIATE WITHDRAWAL SCALE FORM,SITTING,104,BEATS/MINUTE,104,104,BEATS/MINUTE,,FOLLOW-UP 1,15,2001,31
NIDA-CTN-0002,VS,02_011902,SCREENING,5,RESP,RESPIRATIONS,VITAL SIGNS FORM,SITTING,20,BREATHS/MIN,20,20,BREATHS/MIN,Y,"BASELINE, ANY DAY PRIOR TO FIRST DOSE",0,2001,1
NIDA-CTN-0002,VS,02_011902,ACTIVE,13,RESP,RESPIRATIONS,VITAL SIGNS FORM,SITTING,18,BREATHS/MIN,18,18,BREATHS/MIN,,STUDY DAY 2,2,2001,2
NIDA-CTN-0002,VS,02_011902,ACTIVE,19,RESP,RESPIRATIONS,VITAL SIGNS FORM,SITTING,20,BREATHS/MIN,20,20,BREATHS/MIN,,STUDY DAY 3,3,2001,3
NIDA-CTN-0002,VS,02_011902,ACTIVE,25,RESP,RESPIRATIONS,VITAL SIGNS FORM,SITTING,20,BREATHS/MIN,20,20,BREATHS/MIN,,STUDY DAY 4,4,2001,4
NIDA-CTN-0002,VS,02_011902,ACTIVE,31,RESP,RESPIRATIONS,VITAL SIGNS FORM,SITTING,20,BREATHS/MIN,20,20,BREATHS/MIN,,STUDY DAY 7,7,2001,7
NIDA-CTN-0002,VS,02_011902,ACTIVE,37,RESP,RESPIRATIONS,VITAL SIGNS FORM,SITTING,20,BREATHS/MIN,20,20,BREATHS/MIN,,STUDY DAY 8,8,2001,8
NIDA-CTN-0002,VS,02_011902,ACTIVE,43,RESP,RESPIRATIONS,VITAL SIGNS FORM,SITTING,18,BREATHS/MIN,18,18,BREATHS/MIN,,STUDY DAY 9,9,2001,9
NIDA-CTN-0002,VS,02_011902,ACTIVE,49,RESP,RESPIRATIONS,VITAL SIGNS FORM,SITTING,20,BREATHS/MIN,20,20,BREATHS/MIN,,STUDY DAY 10,10,2001,10
NIDA-CTN-0002,VS,02_011902,ACTIVE,55,RESP,RESPIRATIONS,VITAL SIGNS FORM,SITTING,20,BREATHS/MIN,20,20,BREATHS/MIN,,STUDY DAY 11,11,2001,11
NIDA-CTN-0002,VS,02_011902,SCREENING,2,SBP,SYSTOLIC BLOOD PRESSURE,VITAL SIGNS FORM,SITTING,120,MMHG,120,120,MMHG,Y,"BASELINE, ANY DAY PRIOR TO FIRST DOSE",0,2001,1
NIDA-CTN-0002,VS,02_011902,ACTIVE,10,SBP,SYSTOLIC BLOOD PRESSURE,VITAL SIGNS FORM,SITTING,120,MMHG,120,120,MMHG,,STUDY DAY 2,2,2001,2
NIDA-CTN-0002,VS,02_011902,ACTIVE,16,SBP,SYSTOLIC BLOOD PRESSURE,VITAL SIGNS FORM,SITTING,130,MMHG,130,130,MMHG,,STUDY DAY 3,3,2001,3
NIDA-CTN-0002,VS,02_011902,ACTIVE,22,SBP,SYSTOLIC BLOOD PRESSURE,VITAL SIGNS FORM,SITTING,120,MMHG,120,120,MMHG,,STUDY DAY 4,4,2001,4
NIDA-CTN-0002,VS,02_011902,ACTIVE,28,SBP,SYSTOLIC BLOOD PRESSURE,VITAL SIGNS FORM,SITTING,120,MMHG,120,120,MMHG,,STUDY DAY 7,7,2001,7
NIDA-CTN-0002,VS,02_011902,ACTIVE,34,SBP,SYSTOLIC BLOOD PRESSURE,VITAL SIGNS FORM,SITTING,120,MMHG,120,120,MMHG,,STUDY DAY 8,8,2001,8
NIDA-CTN-0002,VS,02_011902,ACTIVE,40,SBP,SYSTOLIC BLOOD PRESSURE,VITAL SIGNS FORM,SITTING,120,MMHG,120,120,MMHG,,STUDY DAY 9,9,2001,9
NIDA-CTN-0002,VS,02_011902,ACTIVE,46,SBP,SYSTOLIC BLOOD PRESSURE,VITAL SIGNS FORM,SITTING,130,MMHG,130,130,MMHG,,STUDY DAY 10,10,2001,10
NIDA-CTN-0002,VS,02_011902,ACTIVE,52,SBP,SYSTOLIC BLOOD PRESSURE,VITAL SIGNS FORM,SITTING,130,MMHG,130,130,MMHG,,STUDY DAY 11,11,2001,11
NIDA-CTN-0002,VS,02_011902,SCREENING,1,TEMP,TEMPERATURE,VITAL SIGNS FORM,SITTING,98.7,F,98.7,98.7,F,Y,"BASELINE, ANY DAY PRIOR TO FIRST DOSE",0,2001,1
NIDA-CTN-0002,VS,02_011902,ACTIVE,9,TEMP,TEMPERATURE,VITAL SIGNS FORM,SITTING,99.3,F,99.3,99.3,F,,STUDY DAY 2,2,2001,2
NIDA-CTN-0002,VS,02_011902,ACTIVE,15,TEMP,TEMPERATURE,VITAL SIGNS FORM,SITTING,99.6,F,99.6,99.6,F,,STUDY DAY 3,3,2001,3
NIDA-CTN-0002,VS,02_011902,ACTIVE,21,TEMP,TEMPERATURE,VITAL SIGNS FORM,SITTING,98.8,F,98.8,98.8,F,,STUDY DAY 4,4,2001,4
NIDA-CTN-0002,VS,02_011902,ACTIVE,27,TEMP,TEMPERATURE,VITAL SIGNS FORM,SITTING,99.2,F,99.2,99.2,F,,STUDY DAY 7,7,2001,7
NIDA-CTN-0002,VS,02_011902,ACTIVE,33,TEMP,TEMPERATURE,VITAL SIGNS FORM,SITTING,98.6,F,98.6,98.6,F,,STUDY DAY 8,8,2001,8
NIDA-CTN-0002,VS,02_011902,ACTIVE,39,TEMP,TEMPERATURE,VITAL SIGNS FORM,SITTING,99.3,F,99.3,99.3,F,,STUDY DAY 9,9,2001,9
NIDA-CTN-0002,VS,02_011902,ACTIVE,45,TEMP,TEMPERATURE,VITAL SIGNS FORM,SITTING,98.7,F,98.7,98.7,F,,STUDY DAY 10,10,2001,10
NIDA-CTN-0002,VS,02_011902,ACTIVE,51,TEMP,TEMPERATURE,VITAL SIGNS FORM,SITTING,99.6,F,99.6,99.6,F,,STUDY DAY 11,11,2001,11
NIDA-CTN-0002,VS,02_011902,SCREENING,7,WEIGHT,WEIGHT,PHYSICAL EXAMINATION FORM,,160,POUNDS,160,160,POUNDS,Y,"BASELINE, ANY DAY PRIOR TO FIRST DOSE",0,2001,1
NIDA-CTN-0002,VS,02_012064,SCREENING,3,DBP,DIASTOLIC BLOOD PRESSURE,VITAL SIGNS FORM,SITTING,108,MMHG,108,108,MMHG,Y,"BASELINE, ANY DAY PRIOR TO FIRST DOSE",0,2001,-15
NIDA-CTN-0002,VS,02_012064,ACTIVE,11,DBP,DIASTOLIC BLOOD PRESSURE,VITAL SIGNS FORM,SITTING,88,MMHG,88,88,MMHG,,STUDY DAY 1,1,2001,1
NIDA-CTN-0002,VS,02_012064,ACTIVE,17,DBP,DIASTOLIC BLOOD PRESSURE,VITAL SIGNS FORM,SITTING,84,MMHG,84,84,MMHG,,STUDY DAY 2,2,2001,2
NIDA-CTN-0002,VS,02_012064,ACTIVE,23,DBP,DIASTOLIC BLOOD PRESSURE,VITAL SIGNS FORM,SITTING,80,MMHG,80,80,MMHG,,STUDY DAY 3,3,2001,3
NIDA-CTN-0002,VS,02_012064,ACTIVE,29,DBP,DIASTOLIC BLOOD PRESSURE,VITAL SIGNS FORM,SITTING,90,MMHG,90,90,MMHG,,STUDY DAY 4,4,2001,4
NIDA-CTN-0002,VS,02_012064,ACTIVE,35,DBP,DIASTOLIC BLOOD PRESSURE,VITAL SIGNS FORM,SITTING,96,MMHG,96,96,MMHG,,STUDY DAY 8,8,2001,8
NIDA-CTN-0002,VS,02_012064,ACTIVE,41,DBP,DIASTOLIC BLOOD PRESSURE,VITAL SIGNS FORM,SITTING,88,MMHG,88,88,MMHG,,STUDY DAY 11,11,2001,11
NIDA-CTN-0002,VS,02_012064,ACTIVE,47,DBP,DIASTOLIC BLOOD PRESSURE,VITAL SIGNS FORM,SITTING,88,MMHG,88,88,MMHG,,STUDY DAY 14,14,2001,14
NIDA-CTN-0002,VS,02_012064,SCREENING,6,HEIGHT,HEIGHT,PHYSICAL EXAMINATION FORM,,62,INCHES,62,62,INCHES,Y,"BASELINE, ANY DAY PRIOR TO FIRST DOSE",0,2001,-15
NIDA-CTN-0002,VS,02_012064,SCREENING,4,PULSE,PULSE,VITAL SIGNS FORM,SITTING,88,BEATS/MINUTE,88,88,BEATS/MINUTE,Y,"BASELINE, ANY DAY PRIOR TO FIRST DOSE",0,2001,-15
NIDA-CTN-0002,VS,02_012064,SCREENING,8,PULSE,PULSE,CLINICAL OPIATE WITHDRAWAL SCALE FORM,SITTING,88,BEATS/MINUTE,88,88,BEATS/MINUTE,Y,"BASELINE, ANY DAY PRIOR TO FIRST DOSE",0,2001,-15
NIDA-CTN-0002,VS,02_012064,ACTIVE,12,PULSE,PULSE,VITAL SIGNS FORM,SITTING,84,BEATS/MINUTE,84,84,BEATS/MINUTE,,STUDY DAY 1,1,2001,1
NIDA-CTN-0002,VS,02_012064,ACTIVE,14,PULSE,PULSE,CLINICAL OPIATE WITHDRAWAL SCALE FORM,SITTING,84,BEATS/MINUTE,84,84,BEATS/MINUTE,,STUDY DAY 1,1,2001,1
NIDA-CTN-0002,VS,02_012064,ACTIVE,18,PULSE,PULSE,VITAL SIGNS FORM,SITTING,68,BEATS/MINUTE,68,68,BEATS/MINUTE,,STUDY DAY 2,2,2001,2
NIDA-CTN-0002,VS,02_012064,ACTIVE,20,PULSE,PULSE,CLINICAL OPIATE WITHDRAWAL SCALE FORM,SITTING,68,BEATS/MINUTE,68,68,BEATS/MINUTE,,STUDY DAY 2,2,2001,2
NIDA-CTN-0002,VS,02_012064,ACTIVE,24,PULSE,PULSE,VITAL SIGNS FORM,SITTING,88,BEATS/MINUTE,88,88,BEATS/MINUTE,,STUDY DAY 3,3,2001,3
NIDA-CTN-0002,VS,02_012064,ACTIVE,26,PULSE,PULSE,CLINICAL OPIATE WITHDRAWAL SCALE FORM,SITTING,88,BEATS/MINUTE,88,88,BEATS/MINUTE,,STUDY DAY 3,3,2001,3
NIDA-CTN-0002,VS,02_012064,ACTIVE,30,PULSE,PULSE,VITAL SIGNS FORM,SITTING,88,BEATS/MINUTE,88,88,BEATS/MINUTE,,STUDY DAY 4,4,2001,4
NIDA-CTN-0002,VS,02_012064,ACTIVE,32,PULSE,PULSE,CLINICAL OPIATE WITHDRAWAL SCALE FORM,SITTING,88,BEATS/MINUTE,88,88,BEATS/MINUTE,,STUDY DAY 4,4,2001,4
NIDA-CTN-0002,VS,02_012064,ACTIVE,36,PULSE,PULSE,VITAL SIGNS FORM,SITTING,80,BEATS/MINUTE,80,80,BEATS/MINUTE,,STUDY DAY 8,8,2001,8
NIDA-CTN-0002,VS,02_012064,ACTIVE,38,PULSE,PULSE,CLINICAL OPIATE WITHDRAWAL SCALE FORM,SITTING,80,BEATS/MINUTE,80,80,BEATS/MINUTE,,STUDY DAY 8,8,2001,8
NIDA-CTN-0002,VS,02_012064,ACTIVE,42,PULSE,PULSE,VITAL SIGNS FORM,SITTING,92,BEATS/MINUTE,92,92,BEATS/MINUTE,,STUDY DAY 11,11,2001,11
NIDA-CTN-0002,VS,02_012064,ACTIVE,44,PULSE,PULSE,CLINICAL OPIATE WITHDRAWAL SCALE FORM,SITTING,92,BEATS/MINUTE,92,92,BEATS/MINUTE,,STUDY DAY 11,11,2001,11
NIDA-CTN-0002,VS,02_012064,ACTIVE,48,PULSE,PULSE,VITAL SIGNS FORM,SITTING,84,BEATS/MINUTE,84,84,BEATS/MINUTE,,STUDY DAY 14,14,2001,14
NIDA-CTN-0002,VS,02_012064,ACTIVE,50,PULSE,PULSE,CLINICAL OPIATE WITHDRAWAL SCALE FORM,SITTING,84,BEATS/MINUTE,84,84,BEATS/MINUTE,,STUDY DAY 14,14,2001,14
NIDA-CTN-0002,VS,02_012064,FOLLOW-UP 1,51,PULSE,PULSE,CLINICAL OPIATE WITHDRAWAL SCALE FORM,SITTING,87,BEATS/MINUTE,87,87,BEATS/MINUTE,,FOLLOW-UP 1,15,2001,37
NIDA-CTN-0002,VS,02_012064,SCREENING,5,RESP,RESPIRATIONS,VITAL SIGNS FORM,SITTING,16,BREATHS/MIN,16,16,BREATHS/MIN,Y,"BASELINE, ANY DAY PRIOR TO FIRST DOSE",0,2001,-15
NIDA-CTN-0002,VS,02_012064,ACTIVE,13,RESP,RESPIRATIONS,VITAL SIGNS FORM,SITTING,18,BREATHS/MIN,18,18,BREATHS/MIN,,STUDY DAY 1,1,2001,1
NIDA-CTN-0002,VS,02_012064,ACTIVE,19,RESP,RESPIRATIONS,VITAL SIGNS FORM,SITTING,18,BREATHS/MIN,18,18,BREATHS/MIN,,STUDY DAY 2,2,2001,2
NIDA-CTN-0002,VS,02_012064,ACTIVE,25,RESP,RESPIRATIONS,VITAL SIGNS FORM,SITTING,18,BREATHS/MIN,18,18,BREATHS/MIN,,STUDY DAY 3,3,2001,3
NIDA-CTN-0002,VS,02_012064,ACTIVE,31,RESP,RESPIRATIONS,VITAL SIGNS FORM,SITTING,18,BREATHS/MIN,18,18,BREATHS/MIN,,STUDY DAY 4,4,2001,4
NIDA-CTN-0002,VS,02_012064,ACTIVE,37,RESP,RESPIRATIONS,VITAL SIGNS FORM,SITTING,18,BREATHS/MIN,18,18,BREATHS/MIN,,STUDY DAY 8,8,2001,8
NIDA-CTN-0002,VS,02_012064,ACTIVE,43,RESP,RESPIRATIONS,VITAL SIGNS FORM,SITTING,18,BREATHS/MIN,18,18,BREATHS/MIN,,STUDY DAY 11,11,2001,11
NIDA-CTN-0002,VS,02_012064,ACTIVE,49,RESP,RESPIRATIONS,VITAL SIGNS FORM,SITTING,18,BREATHS/MIN,18,18,BREATHS/MIN,,STUDY DAY 14,14,2001,14
NIDA-CTN-0002,VS,02_012064,SCREENING,2,SBP,SYSTOLIC BLOOD PRESSURE,VITAL SIGNS FORM,SITTING,152,MMHG,152,152,MMHG,Y,"BASELINE, ANY DAY PRIOR TO FIRST DOSE",0,2001,-15
NIDA-CTN-0002,VS,02_012064,ACTIVE,10,SBP,SYSTOLIC BLOOD PRESSURE,VITAL SIGNS FORM,SITTING,152,MMHG,152,152,MMHG,,STUDY DAY 1,1,2001,1
NIDA-CTN-0002,VS,02_012064,ACTIVE,16,SBP,SYSTOLIC BLOOD PRESSURE,VITAL SIGNS FORM,SITTING,152,MMHG,152,152,MMHG,,STUDY DAY 2,2,2001,2
NIDA-CTN-0002,VS,02_012064,ACTIVE,22,SBP,SYSTOLIC BLOOD PRESSURE,VITAL SIGNS FORM,SITTING,140,MMHG,140,140,MMHG,,STUDY DAY 3,3,2001,3
NIDA-CTN-0002,VS,02_012064,ACTIVE,28,SBP,SYSTOLIC BLOOD PRESSURE,VITAL SIGNS FORM,SITTING,142,MMHG,142,142,MMHG,,STUDY DAY 4,4,2001,4
NIDA-CTN-0002,VS,02_012064,ACTIVE,34,SBP,SYSTOLIC BLOOD PRESSURE,VITAL SIGNS FORM,SITTING,152,MMHG,152,152,MMHG,,STUDY DAY 8,8,2001,8
NIDA-CTN-0002,VS,02_012064,ACTIVE,40,SBP,SYSTOLIC BLOOD PRESSURE,VITAL SIGNS FORM,SITTING,152,MMHG,152,152,MMHG,,STUDY DAY 11,11,2001,11
NIDA-CTN-0002,VS,02_012064,ACTIVE,46,SBP,SYSTOLIC BLOOD PRESSURE,VITAL SIGNS FORM,SITTING,148,MMHG,148,148,MMHG,,STUDY DAY 14,14,2001,14
NIDA-CTN-0002,VS,02_012064,SCREENING,1,TEMP,TEMPERATURE,VITAL SIGNS FORM,SITTING,99.4,F,99.4,99.4,F,Y,"BASELINE, ANY DAY PRIOR TO FIRST DOSE",0,2001,-15
NIDA-CTN-0002,VS,02_012064,ACTIVE,9,TEMP,TEMPERATURE,VITAL SIGNS FORM,SITTING,99.6,F,99.6,99.6,F,,STUDY DAY 1,1,2001,1
NIDA-CTN-0002,VS,02_012064,ACTIVE,15,TEMP,TEMPERATURE,VITAL SIGNS FORM,SITTING,98.8,F,98.8,98.8,F,,STUDY DAY 2,2,2001,2
NIDA-CTN-0002,VS,02_012064,ACTIVE,21,TEMP,TEMPERATURE,VITAL SIGNS FORM,SITTING,98.8,F,98.8,98.8,F,,STUDY DAY 3,3,2001,3
NIDA-CTN-0002,VS,02_012064,ACTIVE,27,TEMP,TEMPERATURE,VITAL SIGNS FORM,SITTING,99.4,F,99.4,99.4,F,,STUDY DAY 4,4,2001,4
NIDA-CTN-0002,VS,02_012064,ACTIVE,33,TEMP,TEMPERATURE,VITAL SIGNS FORM,SITTING,99.8,F,99.8,99.8,F,,STUDY DAY 8,8,2001,8
NIDA-CTN-0002,VS,02_012064,ACTIVE,39,TEMP,TEMPERATURE,VITAL SIGNS FORM,SITTING,99.2,F,99.2,99.2,F,,STUDY DAY 11,11,2001,11
NIDA-CTN-0002,VS,02_012064,ACTIVE,45,TEMP,TEMPERATURE,VITAL SIGNS FORM,SITTING,98.8,F,98.8,98.8,F,,STUDY DAY 14,14,2001,14
NIDA-CTN-0002,VS,02_012064,SCREENING,7,WEIGHT,WEIGHT,PHYSICAL EXAMINATION FORM,,135,POUNDS,135,135,POUNDS,Y,"BASELINE, ANY DAY PRIOR TO FIRST DOSE",0,2001,-15
NIDA-CTN-0002,VS,02_012582,SCREENING,3,DBP,DIASTOLIC BLOOD PRESSURE,VITAL SIGNS FORM,SITTING,70,MMHG,70,70,MMHG,Y,"BASELINE, ANY DAY PRIOR TO FIRST DOSE",0,2001," "
NIDA-CTN-0002,VS,02_012582,SCREENING,4,PULSE,PULSE,VITAL SIGNS FORM,SITTING,60,BEATS/MINUTE,60,60,BEATS/MINUTE,Y,"BASELINE, ANY DAY PRIOR TO FIRST DOSE",0,2001," "
NIDA-CTN-0002,VS,02_012582,SCREENING,6,PULSE,PULSE,CLINICAL OPIATE WITHDRAWAL SCALE FORM,SITTING,60,BEATS/MINUTE,60,60,BEATS/MINUTE,Y,"BASELINE, ANY DAY PRIOR TO FIRST DOSE",0,2001," "
NIDA-CTN-0002,VS,02_012582,SCREENING,5,RESP,RESPIRATIONS,VITAL SIGNS FORM,SITTING,18,BREATHS/MIN,18,18,BREATHS/MIN,Y,"BASELINE, ANY DAY PRIOR TO FIRST DOSE",0,2001," "
NIDA-CTN-0002,VS,02_012582,SCREENING,2,SBP,SYSTOLIC BLOOD PRESSURE,VITAL SIGNS FORM,SITTING,110,MMHG,110,110,MMHG,Y,"BASELINE, ANY DAY PRIOR TO FIRST DOSE",0,2001," "
NIDA-CTN-0002,VS,02_012582,SCREENING,1,TEMP,TEMPERATURE,VITAL SIGNS FORM,SITTING,97.6,F,97.6,97.6,F,Y,"BASELINE, ANY DAY PRIOR TO FIRST DOSE",0,2001," "
NIDA-CTN-0002,VS,02_012721,SCREENING,3,DBP,DIASTOLIC BLOOD PRESSURE,VITAL SIGNS FORM,SITTING,78,MMHG,78,78,MMHG,Y,"BASELINE, ANY DAY PRIOR TO FIRST DOSE",0,2001,-1
NIDA-CTN-0002,VS,02_012721,ACTIVE,11,DBP,DIASTOLIC BLOOD PRESSURE,VITAL SIGNS FORM,SITTING,64,MMHG,64,64,MMHG,,STUDY DAY 1,1,2001,1
NIDA-CTN-0002,VS,02_012721,ACTIVE,17,DBP,DIASTOLIC BLOOD PRESSURE,VITAL SIGNS FORM,SITTING,66,MMHG,66,66,MMHG,,STUDY DAY 2,2,2001,2
NIDA-CTN-0002,VS,02_012721,ACTIVE,25,DBP,DIASTOLIC BLOOD PRESSURE,VITAL SIGNS FORM,SITTING,66,MMHG,66,66,MMHG,,STUDY DAY 7,7,2001,7
NIDA-CTN-0002,VS,02_012721,ACTIVE,31,DBP,DIASTOLIC BLOOD PRESSURE,VITAL SIGNS FORM,SITTING,72,MMHG,72,72,MMHG,,STUDY DAY 9,9,2001,9
NIDA-CTN-0002,VS,02_012721,ACTIVE,37,DBP,DIASTOLIC BLOOD PRESSURE,VITAL SIGNS FORM,SITTING,74,MMHG,74,74,MMHG,,STUDY DAY 10,10,2001,10
NIDA-CTN-0002,VS,02_012721,ACTIVE,43,DBP,DIASTOLIC BLOOD PRESSURE,VITAL SIGNS FORM,SITTING,70,MMHG,70,70,MMHG,,STUDY DAY 13,13,2001,13
NIDA-CTN-0002,VS,02_012721,ACTIVE,49,DBP,DIASTOLIC BLOOD PRESSURE,VITAL SIGNS FORM,SITTING,68,MMHG,68,68,MMHG,,STUDY DAY 14,14,2001,14
NIDA-CTN-0002,VS,02_012721,SCREENING,6,HEIGHT,HEIGHT,PHYSICAL EXAMINATION FORM,,67,INCHES,67,67,INCHES,Y,"BASELINE, ANY DAY PRIOR TO FIRST DOSE",0,2001,-1
NIDA-CTN-0002,VS,02_012721,SCREENING,4,PULSE,PULSE,VITAL SIGNS FORM,SITTING,68,BEATS/MINUTE,68,68,BEATS/MINUTE,Y,"BASELINE, ANY DAY PRIOR TO FIRST DOSE",0,2001,-1
NIDA-CTN-0002,VS,02_012721,SCREENING,8,PULSE,PULSE,CLINICAL OPIATE WITHDRAWAL SCALE FORM,SITTING,68,BEATS/MINUTE,68,68,BEATS/MINUTE,Y,"BASELINE, ANY DAY PRIOR TO FIRST DOSE",0,2001,-1
NIDA-CTN-0002,VS,02_012721,ACTIVE,12,PULSE,PULSE,VITAL SIGNS FORM,SITTING,76,BEATS/MINUTE,76,76,BEATS/MINUTE,,STUDY DAY 1,1,2001,1
NIDA-CTN-0002,VS,02_012721,ACTIVE,14,PULSE,PULSE,CLINICAL OPIATE WITHDRAWAL SCALE FORM,SITTING,76,BEATS/MINUTE,76,76,BEATS/MINUTE,,STUDY DAY 1,1,2001,1
NIDA-CTN-0002,VS,02_012721,ACTIVE,18,PULSE,PULSE,VITAL SIGNS FORM,SITTING,68,BEATS/MINUTE,68,68,BEATS/MINUTE,,STUDY DAY 2,2,2001,2
NIDA-CTN-0002,VS,02_012721,ACTIVE,20,PULSE,PULSE,CLINICAL OPIATE WITHDRAWAL SCALE FORM,SITTING,68,BEATS/MINUTE,68,68,BEATS/MINUTE,,STUDY DAY 2,2,2001,2
NIDA-CTN-0002,VS,02_012721,ACTIVE,21,PULSE,PULSE,CLINICAL OPIATE WITHDRAWAL SCALE FORM,SITTING,80,BEATS/MINUTE,80,80,BEATS/MINUTE,,STUDY DAY 3,3,2001,3
NIDA-CTN-0002,VS,02_012721,ACTIVE,22,PULSE,PULSE,CLINICAL OPIATE WITHDRAWAL SCALE FORM,SITTING,88,BEATS/MINUTE,88,88,BEATS/MINUTE,,STUDY DAY 6,6,2001,6
NIDA-CTN-0002,VS,02_012721,ACTIVE,26,PULSE,PULSE,VITAL SIGNS FORM,SITTING,68,BEATS/MINUTE,68,68,BEATS/MINUTE,,STUDY DAY 7,7,2001,7
NIDA-CTN-0002,VS,02_012721,ACTIVE,28,PULSE,PULSE,CLINICAL OPIATE WITHDRAWAL SCALE FORM,SITTING,68,BEATS/MINUTE,68,68,BEATS/MINUTE,,STUDY DAY 7,7,2001,7
NIDA-CTN-0002,VS,02_012721,ACTIVE,32,PULSE,PULSE,VITAL SIGNS FORM,SITTING,68,BEATS/MINUTE,68,68,BEATS/MINUTE,,STUDY DAY 9,9,2001,9
NIDA-CTN-0002,VS,02_012721,ACTIVE,34,PULSE,PULSE,CLINICAL OPIATE WITHDRAWAL SCALE FORM,SITTING,68,BEATS/MINUTE,68,68,BEATS/MINUTE,,STUDY DAY 9,9,2001,9
NIDA-CTN-0002,VS,02_012721,ACTIVE,38,PULSE,PULSE,VITAL SIGNS FORM,SITTING,68,BEATS/MINUTE,68,68,BEATS/MINUTE,,STUDY DAY 10,10,2001,10
NIDA-CTN-0002,VS,02_012721,ACTIVE,40,PULSE,PULSE,CLINICAL OPIATE WITHDRAWAL SCALE FORM,SITTING,68,BEATS/MINUTE,68,68,BEATS/MINUTE,,STUDY DAY 10,10,2001,10
NIDA-CTN-0002,VS,02_012721,ACTIVE,44,PULSE,PULSE,VITAL SIGNS FORM,SITTING,76,BEATS/MINUTE,76,76,BEATS/MINUTE,,STUDY DAY 13,13,2001,13
NIDA-CTN-0002,VS,02_012721,ACTIVE,46,PULSE,PULSE,CLINICAL OPIATE WITHDRAWAL SCALE FORM,SITTING,76,BEATS/MINUTE,76,76,BEATS/MINUTE,,STUDY DAY 13,13,2001,13
NIDA-CTN-0002,VS,02_012721,ACTIVE,50,PULSE,PULSE,VITAL SIGNS FORM,SITTING,88,BEATS/MINUTE,88,88,BEATS/MINUTE,,STUDY DAY 14,14,2001,14
NIDA-CTN-0002,VS,02_012721,ACTIVE,52,PULSE,PULSE,CLINICAL OPIATE WITHDRAWAL SCALE FORM,SITTING,88,BEATS/MINUTE,88,88,BEATS/MINUTE,,STUDY DAY 14,14,2001,14
NIDA-CTN-0002,VS,02_012721,FOLLOW-UP 1,53,PULSE,PULSE,CLINICAL OPIATE WITHDRAWAL SCALE FORM,SITTING,76,BEATS/MINUTE,76,76,BEATS/MINUTE,,FOLLOW-UP 1,15,2001,34
NIDA-CTN-0002,VS,02_012721,SCREENING,5,RESP,RESPIRATIONS,VITAL SIGNS FORM,SITTING,16,BREATHS/MIN,16,16,BREATHS/MIN,Y,"BASELINE, ANY DAY PRIOR TO FIRST DOSE",0,2001,-1
NIDA-CTN-0002,VS,02_012721,ACTIVE,13,RESP,RESPIRATIONS,VITAL SIGNS FORM,SITTING,16,BREATHS/MIN,16,16,BREATHS/MIN,,STUDY DAY 1,1,2001,1
NIDA-CTN-0002,VS,02_012721,ACTIVE,19,RESP,RESPIRATIONS,VITAL SIGNS FORM,SITTING,16,BREATHS/MIN,16,16,BREATHS/MIN,,STUDY DAY 2,2,2001,2
NIDA-CTN-0002,VS,02_012721,ACTIVE,27,RESP,RESPIRATIONS,VITAL SIGNS FORM,SITTING,16,BREATHS/MIN,16,16,BREATHS/MIN,,STUDY DAY 7,7,2001,7
NIDA-CTN-0002,VS,02_012721,ACTIVE,33,RESP,RESPIRATIONS,VITAL SIGNS FORM,SITTING,18,BREATHS/MIN,18,18,BREATHS/MIN,,STUDY DAY 9,9,2001,9
NIDA-CTN-0002,VS,02_012721,ACTIVE,39,RESP,RESPIRATIONS,VITAL SIGNS FORM,SITTING,18,BREATHS/MIN,18,18,BREATHS/MIN,,STUDY DAY 10,10,2001,10
NIDA-CTN-0002,VS,02_012721,ACTIVE,45,RESP,RESPIRATIONS,VITAL SIGNS FORM,SITTING,18,BREATHS/MIN,18,18,BREATHS/MIN,,STUDY DAY 13,13,2001,13
NIDA-CTN-0002,VS,02_012721,ACTIVE,51,RESP,RESPIRATIONS,VITAL SIGNS FORM,SITTING,18,BREATHS/MIN,18,18,BREATHS/MIN,,STUDY DAY 14,14,2001,14
NIDA-CTN-0002,VS,02_012721,SCREENING,2,SBP,SYSTOLIC BLOOD PRESSURE,VITAL SIGNS FORM,SITTING,104,MMHG,104,104,MMHG,Y,"BASELINE, ANY DAY PRIOR TO FIRST DOSE",0,2001,-1
NIDA-CTN-0002,VS,02_012721,ACTIVE,10,SBP,SYSTOLIC BLOOD PRESSURE,VITAL SIGNS FORM,SITTING,98,MMHG,98,98,MMHG,,STUDY DAY 1,1,2001,1
NIDA-CTN-0002,VS,02_012721,ACTIVE,16,SBP,SYSTOLIC BLOOD PRESSURE,VITAL SIGNS FORM,SITTING,106,MMHG,106,106,MMHG,,STUDY DAY 2,2,2001,2
NIDA-CTN-0002,VS,02_012721,ACTIVE,24,SBP,SYSTOLIC BLOOD PRESSURE,VITAL SIGNS FORM,SITTING,104,MMHG,104,104,MMHG,,STUDY DAY 7,7,2001,7
NIDA-CTN-0002,VS,02_012721,ACTIVE,30,SBP,SYSTOLIC BLOOD PRESSURE,VITAL SIGNS FORM,SITTING,96,MMHG,96,96,MMHG,,STUDY DAY 9,9,2001,9
NIDA-CTN-0002,VS,02_012721,ACTIVE,36,SBP,SYSTOLIC BLOOD PRESSURE,VITAL SIGNS FORM,SITTING,108,MMHG,108,108,MMHG,,STUDY DAY 10,10,2001,10
NIDA-CTN-0002,VS,02_012721,ACTIVE,42,SBP,SYSTOLIC BLOOD PRESSURE,VITAL SIGNS FORM,SITTING,108,MMHG,108,108,MMHG,,STUDY DAY 13,13,2001,13
NIDA-CTN-0002,VS,02_012721,ACTIVE,48,SBP,SYSTOLIC BLOOD PRESSURE,VITAL SIGNS FORM,SITTING,98,MMHG,98,98,MMHG,,STUDY DAY 14,14,2001,14
NIDA-CTN-0002,VS,02_012721,SCREENING,1,TEMP,TEMPERATURE,VITAL SIGNS FORM,SITTING,99.8,F,99.8,99.8,F,Y,"BASELINE, ANY DAY PRIOR TO FIRST DOSE",0,2001,-1
NIDA-CTN-0002,VS,02_012721,ACTIVE,9,TEMP,TEMPERATURE,VITAL SIGNS FORM,SITTING,99.2,F,99.2,99.2,F,,STUDY DAY 1,1,2001,1
NIDA-CTN-0002,VS,02_012721,ACTIVE,15,TEMP,TEMPERATURE,VITAL SIGNS FORM,SITTING,99.4,F,99.4,99.4,F,,STUDY DAY 2,2,2001,2
NIDA-CTN-0002,VS,02_012721,ACTIVE,23,TEMP,TEMPERATURE,VITAL SIGNS FORM,SITTING,99.0,F,99.0,99,F,,STUDY DAY 7,7,2001,7
NIDA-CTN-0002,VS,02_012721,ACTIVE,29,TEMP,TEMPERATURE,VITAL SIGNS FORM,SITTING,99.2,F,99.2,99.2,F,,STUDY DAY 9,9,2001,9
NIDA-CTN-0002,VS,02_012721,ACTIVE,35,TEMP,TEMPERATURE,VITAL SIGNS FORM,SITTING,98.8,F,98.8,98.8,F,,STUDY DAY 10,10,2001,10
NIDA-CTN-0002,VS,02_012721,ACTIVE,41,TEMP,TEMPERATURE,VITAL SIGNS FORM,SITTING,99.4,F,99.4,99.4,F,,STUDY DAY 13,13,2001,13
NIDA-CTN-0002,VS,02_012721,ACTIVE,47,TEMP,TEMPERATURE,VITAL SIGNS FORM,SITTING,99.8,F,99.8,99.8,F,,STUDY DAY 14,14,2001,14
NIDA-CTN-0002,VS,02_012721,SCREENING,7,WEIGHT,WEIGHT,PHYSICAL EXAMINATION FORM,,127,POUNDS,127,127,POUNDS,Y,"BASELINE, ANY DAY PRIOR TO FIRST DOSE",0,2001,-1
NIDA-CTN-0002,VS,02_013283,SCREENING,3,DBP,DIASTOLIC BLOOD PRESSURE,VITAL SIGNS FORM,SITTING,083,MMHG,083,83,MMHG,Y,"BASELINE, ANY DAY PRIOR TO FIRST DOSE",0,2001,1
NIDA-CTN-0002,VS,02_013283,ACTIVE,12,DBP,DIASTOLIC BLOOD PRESSURE,VITAL SIGNS FORM,SITTING,100,MMHG,100,100,MMHG,,STUDY DAY 1,1,2001,1
NIDA-CTN-0002,VS,02_013283,ACTIVE,18,DBP,DIASTOLIC BLOOD PRESSURE,VITAL SIGNS FORM,SITTING,089,MMHG,089,89,MMHG,,STUDY DAY 2,2,2001,2
NIDA-CTN-0002,VS,02_013283,ACTIVE,24,DBP,DIASTOLIC BLOOD PRESSURE,VITAL SIGNS FORM,SITTING,087,MMHG,087,87,MMHG,,STUDY DAY 3,3,2001,3
NIDA-CTN-0002,VS,02_013283,ACTIVE,30,DBP,DIASTOLIC BLOOD PRESSURE,VITAL SIGNS FORM,SITTING,075,MMHG,075,75,MMHG,,STUDY DAY 6,6,2001,6
NIDA-CTN-0002,VS,02_013283,ACTIVE,36,DBP,DIASTOLIC BLOOD PRESSURE,VITAL SIGNS FORM,SITTING,090,MMHG,090,90,MMHG,,STUDY DAY 7,7,2001,7
NIDA-CTN-0002,VS,02_013283,ACTIVE,42,DBP,DIASTOLIC BLOOD PRESSURE,VITAL SIGNS FORM,SITTING,090,MMHG,090,90,MMHG,,STUDY DAY 8,8,2001,8
NIDA-CTN-0002,VS,02_013283,ACTIVE,48,DBP,DIASTOLIC BLOOD PRESSURE,VITAL SIGNS FORM,SITTING,096,MMHG,096,96,MMHG,,STUDY DAY 9,9,2001,9
NIDA-CTN-0002,VS,02_013283,ACTIVE,54,DBP,DIASTOLIC BLOOD PRESSURE,VITAL SIGNS FORM,SITTING,073,MMHG,073,73,MMHG,,STUDY DAY 10,10,2001,10
NIDA-CTN-0002,VS,02_013283,ACTIVE,60,DBP,DIASTOLIC BLOOD PRESSURE,VITAL SIGNS FORM,SITTING,083,MMHG,083,83,MMHG,,STUDY DAY 13,13,2001,13
NIDA-CTN-0002,VS,02_013283,ACTIVE,66,DBP,DIASTOLIC BLOOD PRESSURE,VITAL SIGNS FORM,SITTING,082,MMHG,082,82,MMHG,,STUDY DAY 14,14,2001,14
NIDA-CTN-0002,VS,02_013283,SCREENING,6,HEIGHT,HEIGHT,PHYSICAL EXAMINATION FORM,,67,INCHES,67,67,INCHES,Y,"BASELINE, ANY DAY PRIOR TO FIRST DOSE",0,2001,1
NIDA-CTN-0002,VS,02_013283,SCREENING,4,PULSE,PULSE,VITAL SIGNS FORM,SITTING,62,BEATS/MINUTE,62,62,BEATS/MINUTE,Y,"BASELINE, ANY DAY PRIOR TO FIRST DOSE",0,2001,1
NIDA-CTN-0002,VS,02_013283,SCREENING,8,PULSE,PULSE,CLINICAL OPIATE WITHDRAWAL SCALE FORM,SITTING,62,BEATS/MINUTE,62,62,BEATS/MINUTE,Y,"BASELINE, ANY DAY PRIOR TO FIRST DOSE",0,2001,1
NIDA-CTN-0002,VS,02_013283,ACTIVE,9,PULSE,PULSE,CLINICAL OPIATE WITHDRAWAL SCALE FORM,SITTING,62,BEATS/MINUTE,62,62,BEATS/MINUTE,Y,"BASELINE, ANY DAY PRIOR TO FIRST DOSE",0,2001,1
NIDA-CTN-0002,VS,02_013283,ACTIVE,13,PULSE,PULSE,VITAL SIGNS FORM,SITTING,64,BEATS/MINUTE,64,64,BEATS/MINUTE,,STUDY DAY 1,1,2001,1
NIDA-CTN-0002,VS,02_013283,ACTIVE,15,PULSE,PULSE,CLINICAL OPIATE WITHDRAWAL SCALE FORM,SITTING,64,BEATS/MINUTE,64,64,BEATS/MINUTE,,STUDY DAY 1,1,2001,1
NIDA-CTN-0002,VS,02_013283,ACTIVE,19,PULSE,PULSE,VITAL SIGNS FORM,SITTING,70,BEATS/MINUTE,70,70,BEATS/MINUTE,,STUDY DAY 2,2,2001,2
NIDA-CTN-0002,VS,02_013283,ACTIVE,21,PULSE,PULSE,CLINICAL OPIATE WITHDRAWAL SCALE FORM,SITTING,70,BEATS/MINUTE,70,70,BEATS/MINUTE,,STUDY DAY 2,2,2001,2
NIDA-CTN-0002,VS,02_013283,ACTIVE,25,PULSE,PULSE,VITAL SIGNS FORM,SITTING,60,BEATS/MINUTE,60,60,BEATS/MINUTE,,STUDY DAY 3,3,2001,3
NIDA-CTN-0002,VS,02_013283,ACTIVE,27,PULSE,PULSE,CLINICAL OPIATE WITHDRAWAL SCALE FORM,SITTING,60,BEATS/MINUTE,60,60,BEATS/MINUTE,,STUDY DAY 3,3,2001,3
NIDA-CTN-0002,VS,02_013283,ACTIVE,31,PULSE,PULSE,VITAL SIGNS FORM,SITTING,76,BEATS/MINUTE,76,76,BEATS/MINUTE,,STUDY DAY 6,6,2001,6
NIDA-CTN-0002,VS,02_013283,ACTIVE,33,PULSE,PULSE,CLINICAL OPIATE WITHDRAWAL SCALE FORM,SITTING,76,BEATS/MINUTE,76,76,BEATS/MINUTE,,STUDY DAY 6,6,2001,6
NIDA-CTN-0002,VS,02_013283,ACTIVE,37,PULSE,PULSE,VITAL SIGNS FORM,SITTING,74,BEATS/MINUTE,74,74,BEATS/MINUTE,,STUDY DAY 7,7,2001,7
NIDA-CTN-0002,VS,02_013283,ACTIVE,39,PULSE,PULSE,CLINICAL OPIATE WITHDRAWAL SCALE FORM,SITTING,74,BEATS/MINUTE,74,74,BEATS/MINUTE,,STUDY DAY 7,7,2001,7
NIDA-CTN-0002,VS,02_013283,ACTIVE,43,PULSE,PULSE,VITAL SIGNS FORM,SITTING,68,BEATS/MINUTE,68,68,BEATS/MINUTE,,STUDY DAY 8,8,2001,8
NIDA-CTN-0002,VS,02_013283,ACTIVE,45,PULSE,PULSE,CLINICAL OPIATE WITHDRAWAL SCALE FORM,SITTING,68,BEATS/MINUTE,68,68,BEATS/MINUTE,,STUDY DAY 8,8,2001,8
NIDA-CTN-0002,VS,02_013283,ACTIVE,49,PULSE,PULSE,VITAL SIGNS FORM,SITTING,78,BEATS/MINUTE,78,78,BEATS/MINUTE,,STUDY DAY 9,9,2001,9
NIDA-CTN-0002,VS,02_013283,ACTIVE,51,PULSE,PULSE,CLINICAL OPIATE WITHDRAWAL SCALE FORM,SITTING,78,BEATS/MINUTE,78,78,BEATS/MINUTE,,STUDY DAY 9,9,2001,9
NIDA-CTN-0002,VS,02_013283,ACTIVE,55,PULSE,PULSE,VITAL SIGNS FORM,SITTING,70,BEATS/MINUTE,70,70,BEATS/MINUTE,,STUDY DAY 10,10,2001,10
NIDA-CTN-0002,VS,02_013283,ACTIVE,57,PULSE,PULSE,CLINICAL OPIATE WITHDRAWAL SCALE FORM,SITTING,70,BEATS/MINUTE,70,70,BEATS/MINUTE,,STUDY DAY 10,10,2001,10
NIDA-CTN-0002,VS,02_013283,ACTIVE,61,PULSE,PULSE,VITAL SIGNS FORM,SITTING,78,BEATS/MINUTE,78,78,BEATS/MINUTE,,STUDY DAY 13,13,2001,13
NIDA-CTN-0002,VS,02_013283,ACTIVE,63,PULSE,PULSE,CLINICAL OPIATE WITHDRAWAL SCALE FORM,SITTING,78,BEATS/MINUTE,78,78,BEATS/MINUTE,,STUDY DAY 13,13,2001,13
NIDA-CTN-0002,VS,02_013283,ACTIVE,67,PULSE,PULSE,VITAL SIGNS FORM,SITTING,73,BEATS/MINUTE,73,73,BEATS/MINUTE,,STUDY DAY 14,14,2001,14
NIDA-CTN-0002,VS,02_013283,ACTIVE,69,PULSE,PULSE,CLINICAL OPIATE WITHDRAWAL SCALE FORM,SITTING,73,BEATS/MINUTE,73,73,BEATS/MINUTE,,STUDY DAY 14,14,2001,14
NIDA-CTN-0002,VS,02_013283,SCREENING,5,RESP,RESPIRATIONS,VITAL SIGNS FORM,SITTING,16,BREATHS/MIN,16,16,BREATHS/MIN,Y,"BASELINE, ANY DAY PRIOR TO FIRST DOSE",0,2001,1
NIDA-CTN-0002,VS,02_013283,ACTIVE,14,RESP,RESPIRATIONS,VITAL SIGNS FORM,SITTING,13,BREATHS/MIN,13,13,BREATHS/MIN,,STUDY DAY 1,1,2001,1
NIDA-CTN-0002,VS,02_013283,ACTIVE,20,RESP,RESPIRATIONS,VITAL SIGNS FORM,SITTING,12,BREATHS/MIN,12,12,BREATHS/MIN,,STUDY DAY 2,2,2001,2
NIDA-CTN-0002,VS,02_013283,ACTIVE,26,RESP,RESPIRATIONS,VITAL SIGNS FORM,SITTING,13,BREATHS/MIN,13,13,BREATHS/MIN,,STUDY DAY 3,3,2001,3
NIDA-CTN-0002,VS,02_013283,ACTIVE,32,RESP,RESPIRATIONS,VITAL SIGNS FORM,SITTING,12,BREATHS/MIN,12,12,BREATHS/MIN,,STUDY DAY 6,6,2001,6
NIDA-CTN-0002,VS,02_013283,ACTIVE,38,RESP,RESPIRATIONS,VITAL SIGNS FORM,SITTING,12,BREATHS/MIN,12,12,BREATHS/MIN,,STUDY DAY 7,7,2001,7
NIDA-CTN-0002,VS,02_013283,ACTIVE,44,RESP,RESPIRATIONS,VITAL SIGNS FORM,SITTING,12,BREATHS/MIN,12,12,BREATHS/MIN,,STUDY DAY 8,8,2001,8
NIDA-CTN-0002,VS,02_013283,ACTIVE,50,RESP,RESPIRATIONS,VITAL SIGNS FORM,SITTING,14,BREATHS/MIN,14,14,BREATHS/MIN,,STUDY DAY 9,9,2001,9
NIDA-CTN-0002,VS,02_013283,ACTIVE,56,RESP,RESPIRATIONS,VITAL SIGNS FORM,SITTING,12,BREATHS/MIN,12,12,BREATHS/MIN,,STUDY DAY 10,10,2001,10
NIDA-CTN-0002,VS,02_013283,ACTIVE,62,RESP,RESPIRATIONS,VITAL SIGNS FORM,SITTING,13,BREATHS/MIN,13,13,BREATHS/MIN,,STUDY DAY 13,13,2001,13
NIDA-CTN-0002,VS,02_013283,ACTIVE,68,RESP,RESPIRATIONS,VITAL SIGNS FORM,SITTING,12,BREATHS/MIN,12,12,BREATHS/MIN,,STUDY DAY 14,14,2001,14
NIDA-CTN-0002,VS,02_013283,SCREENING,2,SBP,SYSTOLIC BLOOD PRESSURE,VITAL SIGNS FORM,SITTING,130,MMHG,130,130,MMHG,Y,"BASELINE, ANY DAY PRIOR TO FIRST DOSE",0,2001,1
NIDA-CTN-0002,VS,02_013283,ACTIVE,11,SBP,SYSTOLIC BLOOD PRESSURE,VITAL SIGNS FORM,SITTING,149,MMHG,149,149,MMHG,,STUDY DAY 1,1,2001,1
NIDA-CTN-0002,VS,02_013283,ACTIVE,17,SBP,SYSTOLIC BLOOD PRESSURE,VITAL SIGNS FORM,SITTING,142,MMHG,142,142,MMHG,,STUDY DAY 2,2,2001,2
NIDA-CTN-0002,VS,02_013283,ACTIVE,23,SBP,SYSTOLIC BLOOD PRESSURE,VITAL SIGNS FORM,SITTING,122,MMHG,122,122,MMHG,,STUDY DAY 3,3,2001,3
NIDA-CTN-0002,VS,02_013283,ACTIVE,29,SBP,SYSTOLIC BLOOD PRESSURE,VITAL SIGNS FORM,SITTING,134,MMHG,134,134,MMHG,,STUDY DAY 6,6,2001,6
NIDA-CTN-0002,VS,02_013283,ACTIVE,35,SBP,SYSTOLIC BLOOD PRESSURE,VITAL SIGNS FORM,SITTING,167,MMHG,167,167,MMHG,,STUDY DAY 7,7,2001,7
NIDA-CTN-0002,VS,02_013283,ACTIVE,41,SBP,SYSTOLIC BLOOD PRESSURE,VITAL SIGNS FORM,SITTING,146,MMHG,146,146,MMHG,,STUDY DAY 8,8,2001,8
NIDA-CTN-0002,VS,02_013283,ACTIVE,47,SBP,SYSTOLIC BLOOD PRESSURE,VITAL SIGNS FORM,SITTING,177,MMHG,177,177,MMHG,,STUDY DAY 9,9,2001,9
NIDA-CTN-0002,VS,02_013283,ACTIVE,53,SBP,SYSTOLIC BLOOD PRESSURE,VITAL SIGNS FORM,SITTING,122,MMHG,122,122,MMHG,,STUDY DAY 10,10,2001,10
NIDA-CTN-0002,VS,02_013283,ACTIVE,59,SBP,SYSTOLIC BLOOD PRESSURE,VITAL SIGNS FORM,SITTING,141,MMHG,141,141,MMHG,,STUDY DAY 13,13,2001,13
NIDA-CTN-0002,VS,02_013283,ACTIVE,65,SBP,SYSTOLIC BLOOD PRESSURE,VITAL SIGNS FORM,SITTING,136,MMHG,136,136,MMHG,,STUDY DAY 14,14,2001,14
NIDA-CTN-0002,VS,02_013283,SCREENING,1,TEMP,TEMPERATURE,VITAL SIGNS FORM,SITTING,98.0,F,98.0,98,F,Y,"BASELINE, ANY DAY PRIOR TO FIRST DOSE",0,2001,1
NIDA-CTN-0002,VS,02_013283,ACTIVE,10,TEMP,TEMPERATURE,VITAL SIGNS FORM,SITTING,98.5,F,98.5,98.5,F,,STUDY DAY 1,1,2001,1
NIDA-CTN-0002,VS,02_013283,ACTIVE,16,TEMP,TEMPERATURE,VITAL SIGNS FORM,SITTING,98.6,F,98.6,98.6,F,,STUDY DAY 2,2,2001,2
NIDA-CTN-0002,VS,02_013283,ACTIVE,22,TEMP,TEMPERATURE,VITAL SIGNS FORM,SITTING,98.8,F,98.8,98.8,F,,STUDY DAY 3,3,2001,3
NIDA-CTN-0002,VS,02_013283,ACTIVE,28,TEMP,TEMPERATURE,VITAL SIGNS FORM,SITTING,98.6,F,98.6,98.6,F,,STUDY DAY 6,6,2001,6
NIDA-CTN-0002,VS,02_013283,ACTIVE,34,TEMP,TEMPERATURE,VITAL SIGNS FORM,SITTING,98.6,F,98.6,98.6,F,,STUDY DAY 7,7,2001,7
NIDA-CTN-0002,VS,02_013283,ACTIVE,40,TEMP,TEMPERATURE,VITAL SIGNS FORM,SITTING,98.8,F,98.8,98.8,F,,STUDY DAY 8,8,2001,8
NIDA-CTN-0002,VS,02_013283,ACTIVE,46,TEMP,TEMPERATURE,VITAL SIGNS FORM,SITTING,98.8,F,98.8,98.8,F,,STUDY DAY 9,9,2001,9
NIDA-CTN-0002,VS,02_013283,ACTIVE,52,TEMP,TEMPERATURE,VITAL SIGNS FORM,SITTING,98.8,F,98.8,98.8,F,,STUDY DAY 10,10,2001,10
NIDA-CTN-0002,VS,02_013283,ACTIVE,58,TEMP,TEMPERATURE,VITAL SIGNS FORM,SITTING,98.6,F,98.6,98.6,F,,STUDY DAY 13,13,2001,13
NIDA-CTN-0002,VS,02_013283,ACTIVE,64,TEMP,TEMPERATURE,VITAL SIGNS FORM,SITTING,98.6,F,98.6,98.6,F,,STUDY DAY 14,14,2001,14
NIDA-CTN-0002,VS,02_013283,SCREENING,7,WEIGHT,WEIGHT,PHYSICAL EXAMINATION FORM,,155,POUNDS,155,155,POUNDS,Y,"BASELINE, ANY DAY PRIOR TO FIRST DOSE",0,2001,1
NIDA-CTN-0002,VS,02_013342,SCREENING,3,DBP,DIASTOLIC BLOOD PRESSURE,VITAL SIGNS FORM,SITTING,086,MMHG,086,86,MMHG,Y,"BASELINE, ANY DAY PRIOR TO FIRST DOSE",0,2001," "
NIDA-CTN-0002,VS,02_013342,SCREENING,6,HEIGHT,HEIGHT,PHYSICAL EXAMINATION FORM,,74,INCHES,74,74,INCHES,Y,"BASELINE, ANY DAY PRIOR TO FIRST DOSE",0,2001," "
